"Time (s)","Acceleration x (m/s^2)","Acceleration y (m/s^2)","Acceleration z (m/s^2)"
0.000000000E0,2.091306448E0,9.655450821E0,4.294288158E0
1.579730300E-2,8.528434038E-1,8.957704544E0,5.065364838E0
3.179886600E-2,-8.633778691E-1,8.911314011E0,4.382605553E0
4.779730300E-2,-1.215258479E0,9.144087791E0,3.254744768E0
6.380199100E-2,-1.111819386E0,9.314719200E0,3.104092121E0
7.979886600E-2,-8.272925019E-1,9.457518578E0,3.257847548E0
9.579730300E-2,-4.125496745E-1,9.393362999E0,3.557745457E0
1.117973030E-1,-1.996668428E-1,8.735723495E0,3.887177944E0
1.277973030E-1,7.129932195E-2,8.499617577E0,4.194775581E0
1.437973030E-1,3.193003237E-1,8.617124557E0,4.161984444E0
1.597973030E-1,4.250378311E-1,8.575924873E0,4.020314693E0
1.757973030E-1,3.968532979E-1,8.319706917E0,3.903889418E0
1.917973030E-1,5.844246149E-1,8.031397820E0,3.316515207E0
2.077973030E-1,4.369418025E-1,7.209487438E0,3.082199574E0
2.237973030E-1,-1.165784672E-1,5.799627781E0,2.519926071E0
2.397973030E-1,-5.449969769E-1,4.485440731E0,1.537604213E0
2.557973030E-1,-5.250675678E-1,3.323601961E0,6.794361472E-1
2.717973030E-1,-1.182160974E0,2.707162142E0,6.955634952E-1
2.877973030E-1,-2.156735182E0,3.121081352E0,9.466003180E-1
3.037973030E-1,-2.275688648E0,4.318555832E0,1.003745079E0
3.198269910E-1,-1.388301730E0,5.395046234E0,1.575921059E0
3.357973030E-1,-1.809920788E0,7.015107155E0,2.731793642E0
3.517973030E-1,-2.208382845E0,9.351015091E0,2.989036322E0
3.677973030E-1,-2.879860878E0,1.106229401E1,6.150167942E0
3.837973030E-1,-2.931699991E0,1.053982162E1,4.622954369E0
3.997973030E-1,-2.703752995E0,1.024938583E1,4.207847595E0
4.157973030E-1,-4.278648853E0,1.245248222E1,5.899226665E0
4.317973030E-1,-4.958535194E0,1.422574329E1,7.260972023E0
4.477973030E-1,-2.581523895E0,1.222701550E1,6.429657459E0
4.637973030E-1,-6.999208927E-1,1.117317390E1,5.073016644E0
4.797957410E-1,6.625235081E-1,1.324584484E1,5.311067581E0
4.957973030E-1,1.729360580E0,1.659116554E1,6.552154064E0
5.117957410E-1,2.607869864E0,1.778603554E1,6.940302372E0
5.277957410E-1,3.269942999E0,1.722929955E1,6.606196404E0
5.437988660E-1,4.666002274E0,1.677559853E1,5.450007439E0
5.597973030E-1,6.565609932E0,1.714002419E1,4.821395397E0
5.757957410E-1,8.243926048E0,1.832170486E1,4.791266918E0
5.917973030E-1,1.043244648E1,1.979720306E1,4.421802998E0
6.077957410E-1,1.155322075E1,2.026213837E1,3.715848923E0
6.237957410E-1,1.226461411E1,1.561466694E1,3.048326492E0
6.397973030E-1,1.059404564E1,1.684778786E1,9.919847846E-1
6.557973030E-1,9.884231567E0,1.427718067E1,2.639827728E0
6.717957410E-1,1.132962132E1,1.007240582E1,1.041286215E-1
6.877973030E-1,8.649225235E0,7.111076355E0,-1.281597018E0
7.037973030E-1,4.438926697E0,4.268593311E0,-1.390887618E0
7.197973030E-1,1.032580972E0,1.612322569E0,-1.119950056E0
7.357957410E-1,8.591353893E-2,1.137102127E0,-1.596587777E0
7.517957410E-1,1.227555051E-1,2.655869007E0,-1.506431699E-1
7.677957410E-1,1.267748952E0,4.864653587E0,1.245004058E0
7.837957410E-1,2.559918642E0,5.872411728E0,4.180755019E-1
7.997957410E-1,2.819191694E0,5.312685490E0,-2.330611795E-1
8.157957410E-1,2.729696274E0,5.131233692E0,1.157835964E-2
8.317957410E-1,2.412713528E0,4.591427803E0,-9.223423153E-2
8.477957410E-1,2.069241524E0,3.373928308E0,1.373026669E-1
8.637957410E-1,1.514505029E0,2.652373314E0,3.535661399E-1
8.797957410E-1,-2.167518586E-1,3.483994484E0,-8.236053586E-2
8.957973030E-1,-2.220430374E0,6.897580147E0,-1.344679475E0
9.117957410E-1,-2.684675694E0,1.068785095E1,-4.987668037E0
9.277957410E-1,-3.051247358E0,7.368864059E0,-4.267750263E0
9.437957410E-1,-1.712237358E0,-8.552854657E-1,6.257524014E0
9.597957410E-1,-1.082552671E0,-4.254678249E0,8.722938538E0
9.757957410E-1,-1.793975353E0,-7.060309649E-1,7.569421768E0
9.917957410E-1,-3.425891876E0,-8.025746942E-1,6.829967976E0
1.007795741E0,2.296614051E-1,-7.966006756E0,1.254104900E1
1.023795741E0,7.011553764E0,-1.407510948E1,1.371801949E1
1.039795741E0,1.009534264E1,-1.629345131E1,1.573296928E1
1.055795741E0,1.136229706E1,-1.269646072E1,1.694481850E1
1.071795741E0,1.414922428E1,-1.013789272E1,1.639619064E1
1.087795741E0,1.527828217E1,-1.108098793E1,1.119078636E1
1.103795741E0,1.421082211E1,-1.122833729E1,1.036877060E1
1.119795741E0,1.331141663E1,-9.500172615E0,1.023410130E1
1.135795741E0,1.199851227E1,-6.376199722E0,7.578011990E0
1.151795741E0,1.024629307E1,-1.728872180E0,4.285400867E0
1.167795741E0,7.947753429E0,2.342755079E0,1.146133065E0
1.183795741E0,6.070977211E0,4.981711388E0,-9.938331246E-1
1.199795741E0,4.516690254E0,6.278257847E0,-3.351432323E0
1.215795741E0,4.224089622E0,5.658781528E0,-3.113898754E0
1.231795741E0,3.303308725E0,3.061235905E0,-2.178675890E0
1.247795741E0,2.302206755E0,2.949943841E-1,-1.331472993E0
1.263795741E0,1.072947145E0,-5.541427732E-1,-9.766523242E-1
1.279795741E0,-9.572018683E-2,1.226808071E0,-1.574676037E0
1.295797303E0,-2.613606155E-1,3.488256216E0,-2.662668228E0
1.311795741E0,1.137858748E0,3.893718958E0,-2.731314898E0
1.327795741E0,2.516708136E0,2.615311146E0,-1.780567765E0
1.343797303E0,3.022756338E0,8.832114339E-1,-6.971053481E-1
1.359797303E0,3.570003748E0,-6.083188057E-1,-1.100260139E0
1.375795741E0,4.581870079E0,-1.636235714E0,-1.252426028E0
1.391795741E0,3.068485498E0,-3.116053581E0,-6.237469912E-1
1.407795741E0,-8.791987300E-1,-1.051064134E0,-2.151563644E0
1.423795741E0,-2.181912661E0,6.940579891E0,-2.307090998E0
1.439797303E0,-7.406539440E0,1.243398952E1,5.313289165E0
1.455797303E0,-1.547372532E1,1.769028664E1,7.021906376E0
1.471795741E0,-1.611200142E1,2.946558380E1,4.213105679E0
1.487797303E0,1.498128653E0,3.195001793E1,6.290477753E0
1.503797303E0,5.693928719E0,2.299679565E1,7.245802402E0
1.519795741E0,1.628919095E-1,2.310574150E1,7.641429901E0
1.535797303E0,-7.787859440E-2,2.561299896E1,1.016909409E1
1.551797303E0,-4.806398392E0,2.669205475E1,6.092113495E0
1.567795741E0,-1.023684978E1,2.257014847E1,5.210625648E0
1.583798866E0,-1.168215370E1,1.761532974E1,5.424274445E0
1.599795741E0,-8.595768929E0,1.449369240E1,1.742605329E0
1.615795741E0,-4.925936222E0,1.181738663E1,-1.334910989E-1
1.631795741E0,-4.334922314E0,1.111084843E1,-3.019663095E-1
1.647795741E0,-5.562017918E0,1.147351265E1,9.043857455E-1
1.663795741E0,-4.757230759E0,1.088556385E1,1.321522713E0
1.679795741E0,1.525681168E-1,9.018211365E0,-1.203402400E0
1.695795741E0,5.321946144E0,4.288656712E0,-2.691561460E0
1.711795741E0,7.449347496E0,-1.789254069E0,-1.808110714E0
1.727795741E0,6.152112007E0,-5.443342209E0,-9.469642043E-1
1.743795741E0,3.733824730E0,-4.399537086E0,1.035568833E0
1.759795741E0,2.557725668E0,-8.207993507E-1,2.915381193E0
1.775795741E0,2.800124168E0,1.435189843E0,2.913245440E0
1.791795741E0,2.382393599E0,1.028319240E0,2.831737280E0
1.807795741E0,6.675417423E-1,-4.003967345E-1,1.914796352E0
1.823795741E0,9.748231769E-1,-2.327432156E0,1.812085032E0
1.839795741E0,3.010995865E0,-1.716154218E0,4.417110682E-1
1.855795741E0,6.815095425E0,4.488093853E0,-7.808449864E-1
1.871795741E0,1.633675957E1,1.491153812E1,-2.490161359E-1
1.887795741E0,3.154819489E1,2.607643700E1,1.184737206E0
1.903795741E0,3.033442879E1,2.455916595E1,3.536915779E0
1.919795741E0,2.730135918E1,1.847062492E1,4.707862377E0
1.935795741E0,3.295788193E1,1.742064285E1,3.950959444E0
1.951795741E0,3.280308914E1,1.529073238E1,5.117577553E0
1.967795741E0,2.690366364E1,9.886453629E0,2.971424580E0
1.983795741E0,2.127890778E1,3.532912731E0,3.930589676E0
1.999795741E0,1.589149380E1,-9.005550742E-1,3.988088846E0
2.015795741E0,1.291053104E1,-2.340514183E0,2.597153425E0
2.031795741E0,9.769989967E0,-1.273322582E0,1.385218024E0
2.047795741E0,5.559652328E0,2.372558117E0,4.830541089E-2
2.063795741E0,2.242610455E0,4.333859444E0,1.870206714E0
2.079795741E0,-4.260817170E-1,5.319897175E0,-4.134403467E-1
2.095795741E0,-2.820292950E0,6.032210350E0,-3.075476646E0
2.111795741E0,-4.264187813E0,5.182230473E0,-1.075101972E0
2.127797303E0,-4.469792366E0,3.618242264E0,2.971319437E0
2.143795741E0,-4.402716637E0,2.192178965E0,1.908561826E0
2.159795741E0,-8.970987320E0,3.023206592E-1,-9.983150363E-1
2.175795741E0,-1.492547226E1,-9.678129554E-1,-2.291059345E-1
2.191795741E0,-1.392965698E1,3.279194236E-1,1.459716082E0
2.207795741E0,-8.315417290E0,2.840442657E0,1.658070922E0
2.223795741E0,-4.356221199E0,2.880310774E0,4.354669750E-1
2.239795741E0,-3.480087042E0,2.024335861E0,-1.109166622E0
2.255795741E0,-1.888737798E0,2.462924719E0,-2.332431316E0
2.271795741E0,3.660255373E-1,3.648811340E0,-2.820886612E0
2.287795741E0,4.153317451E0,4.228274822E0,-2.881642103E0
2.303795741E0,7.571155071E0,3.302973747E0,-1.113179326E0
2.319836366E0,1.028654385E1,2.081202984E0,8.986971378E-1
2.335795741E0,1.280557919E1,1.336098671E0,2.477998734E0
2.351795741E0,1.615176392E1,1.913637519E0,2.829065323E0
2.367795741E0,2.275430107E1,1.934945941E0,2.658751488E0
2.383795741E0,2.614590836E1,5.679237843E-1,3.737875462E0
2.399795741E0,2.639322090E1,-1.362779588E-1,7.240525246E0
2.415795741E0,2.592918587E1,7.311221361E-1,1.229185104E1
2.431795741E0,2.409262085E1,5.085743904E0,1.128544331E1
2.447795741E0,2.080445290E1,6.159754276E0,9.989260674E0
2.463795741E0,1.936053848E1,6.984365463E0,9.995361328E0
2.479795741E0,1.794883156E1,7.876272678E0,9.386257172E0
2.495795741E0,1.534543419E1,9.123268127E0,7.477417469E0
2.511795741E0,1.332824326E1,9.259316444E0,5.082813263E0
2.527795741E0,1.168484402E1,8.208749771E0,1.521314144E0
2.543795741E0,9.845436096E0,6.535442829E0,-2.772188663E0
2.559795741E0,8.938732147E0,3.115746975E0,-4.592136383E0
2.575795741E0,7.883694172E0,-1.506355047E0,-4.614689827E0
2.591795741E0,6.640136242E0,-5.920918465E0,-3.966464281E0
2.607795741E0,4.628107071E0,-9.581327438E0,-3.119864941E0
2.623795741E0,1.731649399E0,-1.053892231E1,-4.025639534E0
2.639795741E0,7.478432655E-1,-8.995446205E0,-6.376611233E0
2.655795741E0,1.004109025E0,-6.276351929E0,-8.723331451E0
2.671795741E0,-2.993805408E-1,-2.842128277E0,-1.073633766E1
2.687795741E0,-3.093979120E0,4.459344149E-1,-1.147284222E1
2.703795741E0,-6.382558823E0,3.226368666E0,-1.031438351E1
2.719795741E0,-1.105798435E1,4.465607643E0,-7.533729076E0
2.735795741E0,-1.511618519E1,5.597528934E0,-5.317885876E0
2.751795741E0,-1.832151413E1,6.519899368E0,-2.699452877E0
2.767795741E0,-1.019091988E1,3.149064779E0,-3.542527914E0
2.783795741E0,-1.590803385E0,3.856321573E0,-1.664774656E0
2.799795741E0,1.750362515E0,1.269911385E1,5.730128765E0
2.815795741E0,9.405592918E0,2.689502525E1,9.488393784E0
2.831795741E0,7.048998833E0,2.887462807E1,6.062425137E0
2.847795741E0,-7.938330173E0,2.728604698E1,5.794610023E0
2.863795741E0,-1.769635963E1,2.623734856E1,3.931010962E0
2.879795741E0,-2.137267303E1,3.548441315E1,2.964960098E0
2.895795741E0,-1.748713493E1,4.125016022E1,5.409152985E0
2.911795741E0,-7.942610741E0,3.687879562E1,7.402651310E0
2.927795741E0,-4.250780582E0,3.064687347E1,9.982911110E0
2.943795741E0,-1.484682798E0,2.674167252E1,1.147060204E1
2.959795741E0,4.453147888E0,2.387247086E1,1.171362209E1
2.975795741E0,9.433011055E0,2.104238129E1,1.182552719E1
2.991795741E0,9.796163559E0,1.769602394E1,1.052250671E1
3.007795741E0,7.513818741E0,1.284552479E1,7.868735313E0
3.023795741E0,5.445794106E0,8.052926064E0,2.816567659E0
3.039795741E0,5.352113247E0,4.132708073E0,-2.225668907E0
3.055795741E0,6.279349804E0,1.318151712E0,-4.216256142E0
3.071795741E0,5.916254520E0,1.313008904E0,-3.907930851E0
3.087795741E0,3.488121986E0,4.180850506E0,-3.185724735E0
3.103795741E0,1.735346079E0,7.239807129E0,-4.128532887E0
3.119795741E0,1.355405450E-1,8.094221115E0,-5.518634796E0
3.135795741E0,-2.234987259E0,6.427914619E0,-5.548131466E0
3.151795741E0,-3.501903057E0,4.642634869E0,-3.741217852E0
3.167795741E0,-2.512686014E0,3.881192446E0,-1.668538332E0
3.183795741E0,-3.410300985E-2,3.783231497E0,-1.481560826E0
3.199797303E0,1.907096505E0,3.786286354E0,-1.894234896E0
3.215797303E0,2.199610710E0,4.429263592E0,-2.332804680E0
3.231797303E0,-7.336792350E-2,4.439290524E0,-2.024134874E0
3.247795741E0,-3.698438168E0,4.131616116E0,-2.777733564E0
3.263795741E0,-5.704731464E0,4.226235390E0,-2.821154833E0
3.279797303E0,-7.289855957E0,5.082947731E0,-2.035904646E0
3.295797303E0,-7.572687626E0,2.482442379E0,2.859509945E0
3.311797303E0,-4.243185997E0,-3.359543681E-1,6.973533630E0
3.327797303E0,-1.276483059E0,1.343913317E0,7.974339008E0
3.343797303E0,1.419953108E-1,1.936976194E0,1.209944344E1
3.359797303E0,2.728824854E0,-2.615943193E0,1.305393410E1
3.375797303E0,5.733146191E0,-8.220376968E0,8.661293030E0
3.391797303E0,3.847759724E0,-1.213499260E1,9.877241135E0
3.407797303E0,4.158651829E0,-1.912168312E1,1.318095207E1
3.423797303E0,8.643566132E0,-2.743097305E1,1.596708393E1
3.439797303E0,1.040778637E1,-3.218637466E1,1.577948475E1
3.455797303E0,6.003288746E0,-2.568961143E1,1.270463943E1
3.471797303E0,5.424149990E0,-1.643421364E1,1.044349766E1
3.487795741E0,5.807653427E0,-9.727574348E0,8.433919907E0
3.503797303E0,5.990580082E0,-5.098193645E0,5.932036877E0
3.519797303E0,6.072710514E0,-1.556518376E-1,4.176282883E0
3.535797303E0,6.674325466E0,5.899006367E0,2.931795597E0
3.551797303E0,7.151154995E0,1.087339115E1,1.377163887E0
3.567797303E0,7.123707294E0,1.271229172E1,-1.971242070E0
3.583797303E0,1.029812241E1,1.047981358E1,-6.547461987E0
3.599797303E0,1.047375107E1,3.321734667E0,-2.480144024E0
3.615797303E0,6.288475990E0,-2.369234800E0,2.019758224E0
3.631797303E0,1.107567310E0,-4.159283638E0,2.263784647E0
3.647797303E0,-1.739234209E0,-3.049925804E0,-8.237873316E-1
3.663797303E0,-1.729705334E0,-1.657304645E0,-3.246068478E0
3.679797303E0,-1.591349244E0,-5.537117720E-1,-4.536983490E0
3.695797303E0,-1.436003923E0,1.009223104E0,-4.693123341E0
3.711797303E0,-1.317672849E0,2.404832125E0,-4.191710949E0
3.727795741E0,-5.858611465E-1,2.522904396E0,-2.945768356E0
3.743797303E0,2.928204238E-1,1.783613324E0,-2.322040558E0
3.759797303E0,8.692579865E-1,1.409342051E0,-2.750650406E0
3.775795741E0,1.330697298E0,1.906081438E0,-2.445820808E0
3.791795741E0,1.301124096E0,1.663079619E0,-7.626585960E-1
3.807797303E0,1.919546366E0,1.510607123E0,-5.701743364E-1
3.823797303E0,1.526657939E0,4.793450356E0,-2.352293730E0
3.839797303E0,-5.760075569E0,1.245973206E1,6.464162827E0
3.855797303E0,-1.275804996E1,2.311422729E1,1.217509937E1
3.871797303E0,-5.458990574E0,1.941643906E1,8.898663521E0
3.887795741E0,-1.048475456E1,2.692776680E1,7.673052788E0
3.903795741E0,-1.488623619E1,2.979975700E1,6.881807327E0
3.919795741E0,-1.955726624E1,3.623377991E1,3.715533018E0
3.935795741E0,-1.891391563E1,3.807815933E1,7.479485869E-1
3.951795741E0,-1.813450813E1,3.366400909E1,2.421696663E0
3.967795741E0,-1.853070831E1,3.241306686E1,4.482098579E0
3.983795741E0,-1.644925690E1,3.080008316E1,6.122797489E0
3.999795741E0,-1.222338581E1,2.712507057E1,6.808075428E0
4.015797303E0,-9.141464233E0,2.257868195E1,7.424936295E0
4.031797303E0,-6.081636429E0,1.880411720E1,7.214055061E0
4.047797303E0,-2.811875105E0,1.509245396E1,6.262618542E0
4.063797303E0,1.661480218E-1,1.047037983E1,4.327404976E0
4.079797303E0,1.550207257E0,5.972508430E0,2.359092951E0
4.095797303E0,1.941582680E0,2.296556711E0,3.011139631E-1
4.111797303E0,2.581983566E0,1.002787501E-1,-1.601424098E0
4.127797303E0,3.299478054E0,8.400775492E-2,-3.894609690E0
4.143797303E0,3.461670876E0,1.290599227E0,-4.845174789E0
4.159797303E0,2.055048466E0,2.395188332E0,-3.399441004E0
4.175797303E0,4.998805821E-1,3.760246992E0,-2.483629942E0
4.191797303E0,-5.271266103E-1,4.724871159E0,-1.949675083E0
4.207795741E0,-1.162212491E0,4.061102390E0,-1.595122576E0
4.223797303E0,-1.228091478E0,2.353528976E0,-1.579675198E0
4.239795741E0,-9.789411724E-2,1.336740255E0,-1.921107411E0
4.255797303E0,1.632405043E0,1.756865263E0,-3.163746119E0
4.271797303E0,3.745987177E0,2.602784634E0,-3.844408035E0
4.287797303E0,3.106869459E0,3.433390617E0,-3.519888163E0
4.303797303E0,2.552966118E0,5.326629162E0,-3.725272417E0
4.319826991E0,2.062078238E0,5.430671692E0,-1.054894924E0
4.335795741E0,8.400679231E-1,5.355005264E0,8.680896759E-1
4.351795741E0,1.298193574E0,4.937782288E0,1.709124923E0
4.367795741E0,1.452916503E0,3.019682169E0,1.523181558E0
4.383795741E0,2.191460729E-1,-3.916760683E0,9.022520065E0
4.399795741E0,1.072803497E0,-7.131732941E0,1.367931938E1
4.415795741E0,4.394959450E0,-5.043634892E0,1.848875427E1
4.431795741E0,6.207973480E0,-5.788700581E0,1.852999115E1
4.447795741E0,5.830350399E0,-9.376488686E0,1.736079597E1
4.463795741E0,4.836775780E0,-1.452132130E1,1.885878181E1
4.479795741E0,3.879909277E0,-1.764670372E1,1.817653084E1
4.495795741E0,4.459334850E0,-1.778301048E1,1.733150101E1
4.511795741E0,6.656139374E0,-1.556628513E1,1.558075619E1
4.527795741E0,8.117157936E0,-1.264262962E1,1.224340153E1
4.543795741E0,9.679853439E0,-9.632716179E0,8.891835213E0
4.559795741E0,9.731511116E0,-7.016543388E0,6.192516804E0
4.575795741E0,7.342958927E0,-3.594577789E0,2.622675419E0
4.591797303E0,2.469916105E0,9.542330503E-1,-1.067957640E0
4.607795741E0,-3.530777395E-1,6.423470497E0,-5.815611839E0
4.623795741E0,2.505302191E0,5.941996574E0,-4.653092861E0
4.639795741E0,3.512303352E0,2.527510643E0,-1.818721771E0
4.655795741E0,2.141910315E0,2.010679245E0,-2.104800224E0
4.671795741E0,1.080436110E0,3.639665604E0,-3.076281071E0
4.687795741E0,-1.358853132E-1,4.289997578E0,-3.488974333E0
4.703795741E0,-1.616019130E0,4.025897980E0,-3.028799295E0
4.719795741E0,-2.083827019E0,4.127488613E0,-1.470422983E0
4.735795741E0,-1.927792072E0,4.372377396E0,-1.393521130E-1
4.751795741E0,-1.303451300E0,5.125727177E0,-5.153088570E-1
4.767795741E0,-1.369674802E-1,5.437691689E0,-6.245418787E-1
4.783795741E0,7.086645365E-1,4.726336002E0,-9.910175204E-1
4.799795741E0,1.653110147E0,3.620607615E0,-4.883788526E-1
4.815795741E0,2.926298618E0,2.020418882E0,5.130391121E-1
4.831795741E0,3.635221720E0,-1.886152029E-1,7.114130855E-1
4.847812928E0,4.361086369E0,-2.113170385E0,5.828923583E-1
4.863795741E0,5.352094173E0,-2.413997173E0,1.328571320E0
4.879795741E0,6.016523361E0,-7.234416008E-1,1.443981290E0
4.895795741E0,5.131387234E0,4.287172318E0,1.013494372E0
4.911795741E0,-1.127860546E-1,1.613140297E1,6.079462528E0
4.927795741E0,-1.001695728E1,4.423136139E1,8.331764221E0
4.943795741E0,-5.369141102E-1,2.501401520E1,1.019681835E1
4.959795741E0,-1.241318893E1,3.531147003E1,3.114961624E0
4.975795741E0,-2.501136398E1,3.666600037E1,-7.904409170E-1
4.991795741E0,-3.430011749E1,3.716503906E1,-1.265297294E0
5.007795741E0,-2.946426201E1,3.452774048E1,4.060853124E-1
5.023795741E0,-1.925232315E1,3.349039078E1,4.157559872E0
5.039795741E0,-1.016415215E1,3.141763496E1,6.106880665E0
5.055795741E0,-5.408961296E0,2.625540924E1,8.017501831E0
5.071795741E0,-3.920074224E0,2.120704269E1,8.529611588E0
5.087795741E0,-2.535967350E0,1.560737991E1,8.349079132E0
5.103795741E0,-1.380812764E0,1.119856262E1,6.695863724E0
5.119795741E0,-9.426451474E-2,6.661387444E0,4.193281174E0
5.135795741E0,1.447419405E0,2.571544886E0,1.573881149E0
5.151795741E0,2.732588530E0,2.602305710E-1,-9.364106059E-1
5.167795741E0,2.913494349E0,7.793413401E-1,-4.237219810E0
5.183855116E0,2.693946362E0,2.846859217E0,-5.479446888E0
5.199795741E0,1.510166645E0,4.306067467E0,-4.823722839E0
5.215795741E0,-8.910261095E-2,3.057127476E0,-2.058974981E0
5.231795741E0,-1.175332785E0,3.991134465E-1,-2.358154535E0
5.247795741E0,-6.995857358E-1,-1.325650215E0,-4.191088200E0
5.263795741E0,1.705820709E-1,-1.975628138E0,-5.465023994E0
5.279795741E0,9.272742867E-1,-1.510798693E0,-5.710803032E0
5.295795741E0,2.073359728E0,-1.403730035E0,-3.838671446E0
5.311795741E0,2.109674692E0,2.595985234E-1,-4.182823658E0
5.327797303E0,3.796954870E0,2.934199572E0,-3.114693642E0
5.343795741E0,4.902712345E0,5.066418171E0,1.310662627E0
5.359795741E0,6.554912567E0,8.942505836E0,7.375290394E-1
5.375795741E0,8.674173355E0,1.004865646E1,4.955710173E-1
5.391795741E0,4.014137745E0,5.566500187E0,2.714191675E0
5.407795741E0,-3.790950298E0,-1.666192055E0,1.079152966E1
5.423795741E0,2.582098842E-1,-2.445447206E0,1.140300751E1
5.439795741E0,8.049085617E0,-2.341538906E0,1.550373936E1
5.455795741E0,5.217626572E0,-5.301548004E0,1.606792831E1
5.471795741E0,2.444882154E0,-8.899305344E0,1.550693703E1
5.487795741E0,2.957978725E0,-1.462963581E1,1.591572380E1
5.503795741E0,3.412810087E0,-2.153730774E1,1.697941017E1
5.519795741E0,4.424734116E0,-1.875574684E1,1.656171799E1
5.535795741E0,5.721720695E0,-1.286652660E1,1.447723007E1
5.551795741E0,7.101106644E0,-8.930736542E0,1.174854851E1
5.567795741E0,8.103501320E0,-6.200331211E0,8.286552429E0
5.583795741E0,8.458379745E0,-4.251767159E0,4.675789356E0
5.599795741E0,7.619738102E0,-1.990711689E0,1.067229748E0
5.615795741E0,5.893662453E0,1.730873823E0,-2.096736670E0
5.631795741E0,2.756319761E0,7.385020733E0,-4.213995934E0
5.647795741E0,6.487329006E-1,1.206194973E1,-5.750480175E0
5.663795741E0,3.680146456E0,1.038509846E1,-5.747980595E0
5.679795741E0,7.020163059E0,5.727973938E0,-2.994150400E0
5.695795741E0,5.361814976E0,2.631409645E0,-5.557421222E-2
5.711795741E0,1.672292471E0,1.749759316E0,1.714257956E0
5.727795741E0,-1.185991645E0,2.085521936E0,1.928385854E0
5.743795741E0,-2.396595955E0,2.126443863E0,1.042876005E0
5.759795741E0,-2.317654371E0,2.346423149E0,-1.745947748E-1
5.775795741E0,-1.004472971E0,2.865217686E0,-2.113601267E-1
5.791797303E0,1.012057781E0,3.080724716E0,-3.983185291E-1
5.807797303E0,3.694425583E0,1.825262785E0,-5.653667450E-1
5.823795741E0,6.651695728E0,1.328590363E-1,-2.235992908E0
5.839795741E0,5.519745827E0,-9.385079145E-1,-1.781037092E0
5.855795741E0,3.054235220E0,-4.761683941E-1,9.640109539E-1
5.871795741E0,1.466601849E0,2.251631737E0,3.205213547E0
5.887795741E0,1.546367109E-1,7.828311443E0,5.032258034E0
5.903795741E0,-3.257713556E0,1.828163719E1,3.460253477E0
5.919795741E0,-6.349470615E0,2.447741890E1,8.615409851E0
5.935795741E0,-6.873877525E0,1.857473373E1,7.213308334E0
5.951795741E0,-1.295506382E1,2.688272858E1,4.040588856E0
5.967795741E0,-1.833443451E1,2.543235970E1,2.983481646E0
5.983795741E0,-2.669394112E1,2.808460999E1,2.150404930E0
5.999795741E0,-2.631557083E1,3.230468369E1,3.612371534E-2
6.015795741E0,-2.132343864E1,3.040322113E1,4.229194164E0
6.031795741E0,-1.957027054E1,2.818154526E1,5.893978596E0
6.047795741E0,-1.832079506E1,2.645497131E1,7.201911926E0
6.063795741E0,-1.468603325E1,2.367471886E1,8.549560547E0
6.079795741E0,-1.017269516E1,1.971902657E1,9.235000610E0
6.095795741E0,-7.286197186E0,1.590806293E1,8.263913155E0
6.111797303E0,-5.525846004E0,1.230090046E1,6.329129696E0
6.127797303E0,-3.210222244E0,7.430108070E0,3.790050030E0
6.143797303E0,-1.350808591E-1,2.726899862E0,9.347825050E-1
6.159797303E0,1.888172865E0,-6.829125285E-1,-1.676343441E0
6.175797303E0,2.765398741E0,-3.097043514E0,-2.663013220E0
6.191797303E0,3.032812119E0,-3.530480146E0,-2.740221262E0
6.207797303E0,3.446874857E0,-2.735634089E0,-2.178244591E0
6.223795741E0,4.463271141E0,-1.259350061E0,-2.246546268E0
6.239795741E0,5.073016644E0,1.313937902E-1,-2.111839056E0
6.255797303E0,4.944294453E0,1.364062905E0,-2.434644461E0
6.271797303E0,4.800891399E0,2.923166990E0,-3.024479866E0
6.287797303E0,4.433228493E0,4.358922005E0,-3.464735270E0
6.303797303E0,4.123025894E0,5.129146099E0,-3.126453876E0
6.319826991E0,3.625884295E0,6.054361343E0,-2.325363636E0
6.335797303E0,3.888346434E0,7.424620628E0,-1.566028237E0
6.351797303E0,3.710581779E0,7.852148533E0,-2.106140852E0
6.367797303E0,2.623719454E0,7.928485394E0,-3.337727785E0
6.383797303E0,1.681716084E0,6.089815140E0,-9.348399639E-1
6.399797303E0,4.347966015E-1,3.617676973E0,1.386884451E0
6.415797303E0,-1.430736542E0,4.841966152E0,4.027238786E-1
6.431797303E0,-5.225642204E0,8.178018332E-1,4.791553974E0
6.447797303E0,-3.186280251E0,-5.765190125E0,1.084692097E1
6.463797303E0,9.693452120E-1,-5.070727348E0,1.122091484E1
6.479797303E0,2.329108238E0,-7.470052719E0,1.688182259E1
6.495797303E0,4.547307014E0,-1.120373440E1,1.866218948E1
6.511797303E0,9.526155472E0,-1.292680264E1,1.931672668E1
6.527797303E0,1.152519798E1,-1.618929482E1,2.053165817E1
6.543797303E0,1.015017033E1,-2.044752693E1,1.768733788E1
6.559797303E0,7.395689011E0,-2.223283386E1,1.386681461E1
6.575797303E0,6.864070892E0,-2.029948807E1,1.196434307E1
6.591797303E0,6.671270370E0,-1.545710087E1,6.681632996E0
6.607795741E0,6.073869705E0,-1.019928074E1,3.436943531E0
6.623797303E0,5.020123959E0,-5.952186584E0,1.804289579E0
6.639797303E0,4.110212326E0,-3.111380100E0,9.850512147E-1
6.655797303E0,3.013332844E0,-1.971385628E-1,2.365758568E-1
6.671797303E0,1.468986392E0,3.551041842E0,-7.447978258E-1
6.687797303E0,-1.178081274E0,7.721856117E0,-2.305348158E0
6.703797303E0,-2.730807304E0,9.566597939E0,-3.580681801E0
6.719797303E0,-1.570902824E0,7.208549023E0,-4.002272129E0
6.735797303E0,1.206007302E-1,3.788125038E0,-1.902566791E0
6.751795741E0,2.113409787E-1,1.720741510E0,5.409842730E-1
6.767795741E0,-8.153597116E-1,2.221905231E0,1.133271456E0
6.783797303E0,-1.362530589E0,3.920084000E0,3.335888982E-1
6.799797303E0,-9.245640635E-1,5.096805096E0,-1.280984163E0
6.815795741E0,4.204888642E-1,5.155098915E0,-2.432959080E0
6.831797303E0,2.304716110E0,4.198835850E0,-1.878098011E0
6.847797303E0,3.496836901E0,3.555858850E0,-1.262644529E0
6.863795741E0,3.697959423E0,3.902836084E0,-8.364382982E-1
6.879795741E0,3.191470861E0,4.321332932E0,-7.090476155E-1
6.895797303E0,2.417080879E0,3.733527660E0,8.339866400E-1
6.911797303E0,3.035953045E0,2.035138369E0,-1.845843315E0
6.927795741E0,4.822410583E0,-1.271570086E0,-4.511729479E-1
6.943795741E0,1.237160683E0,-2.162845135E0,2.244248152E0
6.959795741E0,-4.769067764E0,9.173316002E0,9.119389534E0
6.975795741E0,-8.546639442E0,3.429902649E1,5.993797779E0
6.991797303E0,-1.715273142E0,1.939465141E1,5.638996124E0
7.007797303E0,-1.339696598E1,3.049695969E1,5.751073837E0
7.023797303E0,-1.757304764E1,3.446361160E1,3.316620588E0
7.039797303E0,-2.292597389E1,4.352906036E1,2.952529490E-2
7.055797303E0,-2.300317383E1,3.925093460E1,1.170534849E0
7.071795741E0,-2.054650116E1,3.359278488E1,1.616430879E0
7.087795741E0,-1.781782913E1,3.279595566E1,1.981872320E0
7.103795741E0,-1.286273384E1,2.686480141E1,3.811272144E0
7.119795741E0,-8.111689568E0,2.375288391E1,3.110269070E0
7.135795741E0,-3.853908300E0,1.924839401E1,5.683346272E0
7.151795741E0,2.818358541E-1,1.534807777E1,6.532837868E0
7.167795741E0,2.332268476E0,1.110958385E1,5.433554649E0
7.183795741E0,2.757565022E0,6.580683708E0,3.560752392E0
7.199795741E0,2.814652443E0,2.544116974E0,1.387803793E0
7.215795741E0,2.950288534E0,4.695316851E-1,-8.170165420E-1
7.231795741E0,3.524523497E0,3.322194219E-1,-2.273648977E0
7.247795741E0,3.759155273E0,1.845575213E0,-2.869546413E0
7.263795741E0,3.121493101E0,4.076856136E0,-3.098834515E0
7.279795741E0,1.611355186E0,5.533910275E0,-3.390476704E0
7.295795741E0,-9.984012246E-1,5.105118275E0,-4.522551060E0
7.311797303E0,-2.724678278E0,2.536695004E0,-4.915698051E0
7.327797303E0,-3.333801270E0,-1.019163728E-1,-4.815936565E0
7.343795741E0,-2.742376089E0,-1.068388581E0,-4.723300457E0
7.359795741E0,-1.342179894E0,-7.050157785E-1,-4.889572620E0
7.375795741E0,5.107598305E-1,2.850632370E-1,-4.881049156E0
7.391795741E0,2.534157276E0,1.297063589E0,-3.936766624E0
7.407795741E0,3.854683876E0,2.600936174E0,-3.061044455E0
7.423795741E0,5.190485954E0,4.232584476E0,-2.555743217E0
7.439795741E0,6.349125862E0,5.467628956E0,-1.713271618E0
7.455795741E0,6.671749592E0,5.025352478E0,-2.537853830E-2
7.471795741E0,5.850490093E0,2.636925697E0,3.449086905E0
7.487795741E0,2.118858814E0,2.640708685E-1,8.364574432E0
7.503795741E0,1.098124504E0,-3.466047525E0,1.479680824E1
7.519795741E0,7.248465061E0,-7.526546478E0,1.772227287E1
7.535795741E0,7.236264229E0,-9.345191002E0,1.782612419E1
7.551795741E0,5.076176643E0,-8.597252846E0,2.033600426E1
7.567795741E0,4.795346737E0,-1.055804729E1,2.223994064E1
7.583795741E0,4.575731277E0,-9.616712570E0,1.918791771E1
7.599795741E0,7.186090946E0,-8.456330299E0,1.848574638E1
7.615795741E0,1.005918026E1,-8.771205902E0,1.479371452E1
7.631795741E0,1.123102760E1,-7.990399361E0,1.077503777E1
7.647795741E0,1.153003502E1,-5.765400410E0,7.170576572E0
7.663795741E0,1.159033012E1,-2.953247786E0,4.932735443E0
7.679795741E0,1.066286469E1,3.860889673E-1,3.072843075E0
7.695795741E0,8.913621902E0,4.166131496E0,1.484558225E0
7.711795741E0,6.833262444E0,6.580415726E0,-4.720695615E-1
7.727795741E0,5.229070663E0,6.646495819E0,-2.767160892E0
7.743795741E0,4.237603188E0,3.591695309E0,-4.801044941E0
7.759795741E0,1.722225904E0,-4.952837229E-1,-5.797262669E0
7.775795741E0,-1.356535554E0,-1.699615121E0,-5.332049847E0
7.791795741E0,-2.388924837E0,-3.524169028E-1,-2.397218466E0
7.807795741E0,-2.573546648E0,1.466889024E0,-9.637523890E-1
7.823795741E0,-2.275439739E0,2.425661564E0,-1.868061543E0
7.839795741E0,-2.463231087E0,2.780712128E0,-3.296509266E0
7.855795741E0,-2.886047363E0,3.210930824E0,-3.675588131E0
7.871795741E0,-2.153986454E0,3.330669641E0,-2.943096399E0
7.887795741E0,-2.067824155E-1,3.379022837E0,-1.831382275E0
7.903795741E0,2.050384760E0,3.734887600E0,-1.123330712E0
7.919795741E0,3.679600716E0,3.553637028E0,-7.298484445E-2
7.935795741E0,4.474609852E0,1.875493169E0,1.890193462E0
7.951795741E0,4.480518341E0,-5.739188790E-1,-1.196305990E0
7.967795741E0,4.788738728E0,-1.434327841E0,-7.260177284E-2
7.983795741E0,3.864816427E-1,4.212913990E0,3.860650063E0
7.999795741E0,-1.163928699E1,3.601385880E1,9.675045967E0
8.015795741E0,-4.900203228E0,2.863708305E1,3.100050688E0
8.031795741E0,-3.276091576E0,3.069717216E1,4.350724220E0
8.047795741E0,-1.846017647E1,3.500449371E1,1.662619829E0
8.063795741E0,-2.534172440E1,3.537777710E1,5.732484818E0
8.079795741E0,-2.153995323E1,4.023310471E1,-2.405617237E0
8.095795741E0,-1.631671524E1,3.379855347E1,5.266726494E0
8.111795741E0,-1.111587620E1,3.246237564E1,4.166878223E0
8.127795741E0,-6.679228783E0,2.888264465E1,4.050941467E0
8.143795741E0,-5.157167912E0,2.344248962E1,5.482827187E0
8.159795741E0,-3.818119526E0,1.980638885E1,6.005692482E0
8.175795741E0,-1.990711689E0,1.592623901E1,6.005653858E0
8.191795741E0,-1.748820692E-1,1.111546516E1,5.739830494E0
8.207795741E0,1.288243294E0,6.812930584E0,4.044620514E0
8.223795741E0,2.313028574E0,3.393704414E0,1.921490431E0
8.239795741E0,2.809595585E0,1.262424231E0,8.759905398E-2
8.255795741E0,2.859241962E0,8.702253103E-1,-1.233530998E0
8.271795741E0,2.060086250E0,2.312904358E0,-2.883500099E0
8.287795741E0,1.678699374E0,4.528795242E0,-4.701005459E0
8.303795741E0,1.876776338E0,6.530395985E0,-5.307092667E0
8.319826991E0,7.738921642E-1,7.576959133E0,-5.293282986E0
8.335795741E0,-1.664803386E0,6.897120476E0,-5.286626816E0
8.351795741E0,-3.688890219E0,4.708628654E0,-4.712785244E0
8.367795741E0,-3.468384266E0,1.582078815E0,-3.300991297E0
8.383795741E0,-2.100078821E0,-9.536584467E-2,-2.735509634E0
8.399795741E0,-1.082179174E-1,2.986623049E-1,-2.855267525E0
8.415795741E0,1.693706155E0,1.392400622E0,-2.867295980E0
8.431795741E0,3.269971848E0,2.309207439E0,-3.252887011E0
8.447795741E0,3.875561237E0,2.576477051E0,-2.269693613E0
8.463795741E0,3.790462017E0,2.715407610E0,-1.842979908E0
8.479795741E0,4.362130165E0,2.904923439E0,-1.156590953E-1
8.495795741E0,5.894544125E0,-3.948421776E-1,4.257254601E0
8.511795741E0,5.631631851E0,-5.085351467E0,7.845971107E0
8.527795741E0,4.267357826E0,-7.874720573E0,1.314784431E1
8.543795741E0,4.630778790E0,-1.040535355E1,1.601032257E1
8.559795741E0,8.564087868E0,-8.431659698E0,1.805000114E1
8.575795741E0,1.057750702E1,-5.600956917E0,2.329953766E1
8.591795741E0,1.063742828E1,-9.124130249E0,2.324673080E1
8.607795741E0,1.124946308E1,-1.356411076E1,1.956587410E1
8.623795741E0,8.560544968E0,-1.651736641E1,1.499204063E1
8.639795741E0,5.739753723E0,-1.880276680E1,1.279981422E1
8.655795741E0,4.698994160E0,-1.558634853E1,9.901086807E0
8.671795741E0,5.038588047E0,-1.111066628E1,6.938961506E0
8.687795741E0,5.075956345E0,-9.855807304E0,4.324224949E0
8.703795741E0,4.003105164E0,-7.619355679E0,1.524168015E0
8.719795741E0,2.854386568E0,-4.696398735E0,5.736507773E-1
8.735795741E0,1.653598547E0,-5.754032731E-1,-1.225630164E0
8.751797303E0,-3.026079535E-1,4.787809372E0,-2.600141287E0
8.767797303E0,-1.933135867E0,8.659013748E0,-3.475136042E0
8.783795741E0,-1.074766755E0,8.369237900E0,-4.249621391E0
8.799797303E0,1.014528632E0,5.535519123E0,-4.003718376E0
8.815797303E0,2.279088497E0,3.240187883E0,-3.814528227E0
8.831797303E0,2.367817640E0,2.393473864E0,-2.479722738E0
8.847797303E0,1.831104636E0,2.278102160E0,-1.497400761E0
8.863797303E0,1.274471879E0,2.506011009E0,-2.054110050E0
8.879797303E0,6.554175019E-1,2.199064732E0,-2.338454962E0
8.895795741E0,4.657680094E-1,1.714976192E0,-2.728049040E0
8.911797303E0,7.512909174E-1,1.614850760E0,-2.876987696E0
8.927797303E0,5.907070041E-1,1.646981001E0,-2.726009369E0
8.943797303E0,4.196557030E-2,2.143298864E0,-2.508022070E0
8.959795741E0,-3.557496369E-1,2.896763563E0,-1.751099944E0
8.975795741E0,-7.439263165E-2,2.673633814E0,-3.117250800E-1
8.991795741E0,-7.081282139E-1,1.238913178E0,1.605293036E0
9.007795741E0,-2.702440977E0,1.286222696E0,2.452352047E0
9.023795741E0,-5.862595558E0,7.630521774E0,1.280045509E0
9.039795741E0,-1.190822220E1,2.058141899E1,9.765451431E0
9.055795741E0,-2.523095846E0,2.715224838E1,1.178325462E1
9.071795741E0,4.189278126E0,2.535025787E1,1.100136662E1
9.087795741E0,-4.908352852E0,2.773200989E1,7.953490257E0
9.103795741E0,-1.426272869E1,3.665494156E1,3.776556492E0
9.119795741E0,-2.388167381E1,4.353382874E1,-2.766155243E0
9.135795741E0,-2.090424347E1,3.928476334E1,3.034507036E0
9.151795741E0,-1.586986065E1,3.662884521E1,5.195254803E0
9.167795741E0,-1.280355835E1,3.399420547E1,3.281981230E0
9.183795741E0,-8.959342003E0,2.750202370E1,4.582272053E0
9.199797303E0,-3.245953321E0,2.338259697E1,4.866818428E0
9.215795741E0,1.890145659E0,1.960395241E1,5.594377995E0
9.231797303E0,4.408558369E0,1.535372829E1,6.523127079E0
9.247797303E0,5.550535202E0,1.005401993E1,6.414363384E0
9.263797303E0,5.747175694E0,5.130295277E0,4.609125614E0
9.279797303E0,5.306939602E0,2.027793169E0,2.300569296E0
9.295797303E0,4.791477680E0,3.804482222E-1,4.954848289E-1
9.311797303E0,4.648764133E0,7.285364270E-1,-1.165506959E0
9.327797303E0,3.966694355E0,3.686467171E0,-3.071348906E0
9.343797303E0,3.356143951E0,7.741028786E0,-4.534522533E0
9.359797303E0,2.085225105E0,1.156644630E1,-6.318336487E0
9.375797303E0,-1.582327843E0,1.190054226E1,-8.268213272E0
9.391797303E0,-6.078820705E0,8.287567139E0,-7.792715073E0
9.407797303E0,-7.873466492E0,4.952788830E0,-4.865267277E0
9.423797303E0,-5.243905067E0,2.970763683E0,-3.008975267E0
9.439797303E0,-1.198614001E0,2.021213770E0,-3.669631243E0
9.455797303E0,-4.158057868E-1,1.372739553E0,-4.202743053E0
9.471797303E0,-1.148125052E0,2.366620451E-1,-3.025811195E0
9.487797303E0,-2.835309505E-1,-4.994304478E-2,-1.035789013E0
9.503797303E0,2.335208416E0,2.140339613E0,-8.518186808E-1
9.519797303E0,4.625587940E0,5.491034508E0,-2.131270409E0
9.535797303E0,2.357532263E0,3.691351652E0,2.112164736E0
9.551797303E0,-1.891323477E-1,-3.954579592E0,1.263158798E1
9.567795741E0,2.812698603E0,-5.709385872E0,1.145298958E1
9.583797303E0,4.923465252E0,-3.722935677E0,1.252472973E1
9.599797303E0,3.228159666E0,-5.718091488E0,1.613565445E1
9.615797303E0,1.521304488E0,-1.206138515E1,1.367812252E1
9.631797303E0,2.273821235E-1,-1.852516365E1,1.071890831E1
9.647797303E0,-1.282066226E0,-1.935582733E1,1.316942120E1
9.663797303E0,1.378006697E0,-1.372160053E1,1.520023155E1
9.679797303E0,4.221398830E0,-9.468875885E0,1.628260231E1
9.695797303E0,5.367101192E0,-1.179313850E1,1.404169655E1
9.711797303E0,7.773149490E0,-1.589473152E1,1.084194183E1
9.727797303E0,7.800462246E0,-1.420560360E1,7.075373650E0
9.743797303E0,7.280930042E0,-9.548651695E0,6.803325176E0
9.759797303E0,7.232040405E0,-5.958200455E0,6.098807812E0
9.775797303E0,6.560773373E0,-2.805142641E0,4.852817059E0
9.791797303E0,4.672275066E0,2.906848192E-1,2.419436455E0
9.807797303E0,2.139822483E0,3.486388683E0,-2.102587819E-1
9.823797303E0,6.706637740E-1,5.472857952E0,-1.646942616E0
9.839797303E0,1.071261615E-1,5.882237434E0,-2.831009626E0
9.855797303E0,-4.807940125E-1,4.468978405E0,-3.130658150E0
9.871795741E0,-1.539031148E0,2.033184767E0,-2.049647570E0
9.887795741E0,-2.891276360E0,2.665416896E-1,-1.605819821E0
9.903795741E0,-3.463040352E0,-1.305989027E-1,-2.062958956E0
9.919795741E0,-2.708407164E0,1.260393977E0,-2.722609520E0
9.935795741E0,-1.495351315E0,3.416353464E0,-3.543935537E0
9.951795741E0,-2.936632037E-1,5.010499001E0,-3.943183184E0
9.967795741E0,6.829029322E-1,5.276370525E0,-3.605466604E0
9.983795741E0,1.419196486E0,4.785530090E0,-2.501854420E0
9.999795741E0,1.911607265E0,4.189738274E0,-1.645515680E0
1.001579574E1,2.751656055E0,3.709499598E0,-7.087028623E-1
1.003179574E1,3.822965622E0,3.648179293E0,4.144842178E-2
1.004779730E1,3.998690367E0,5.426151752E0,2.324290946E-2
1.006379730E1,1.749730468E0,1.143767548E1,-4.035666212E-2
1.007979730E1,-3.309236765E0,2.599561882E1,3.840893269E0
1.009579730E1,-4.146537304E0,1.957315445E1,3.712334156E0
1.011179730E1,-1.251497030E0,1.468671322E1,6.260148048E0
1.012779730E1,-1.263858891E1,3.598968124E1,-4.015842378E-1
1.014379730E1,-1.883531761E1,3.694208145E1,4.112357616E0
1.015979730E1,-2.798989487E1,4.275047302E1,9.363990784E0
1.017579730E1,-1.604604530E1,4.717574310E1,1.437957525E0
1.019179730E1,-3.781948090E0,3.063159752E1,5.169924259E0
1.020779730E1,-5.780072212E0,2.783726692E1,4.178427696E0
1.022379730E1,-5.220738888E0,2.469358635E1,4.175248623E0
1.023979574E1,-3.288388252E0,2.048558426E1,4.577177048E0
1.025579730E1,-1.007154465E0,1.771172142E1,3.560312033E0
1.027179730E1,1.196784735E0,1.468314075E1,3.743947268E0
1.028779574E1,2.659421921E0,1.104751682E1,3.956083059E0
1.030379730E1,1.581906438E0,7.660248756E0,2.842482328E0
1.031983637E1,-6.936864257E-1,4.109743118E0,1.247388721E0
1.033579574E1,-1.660915136E0,2.203450918E0,-1.397246599E0
1.035179730E1,-3.602124453E-1,2.429856300E0,-3.501433849E0
1.036779730E1,1.432901025E0,3.151324987E0,-3.835798264E0
1.038379730E1,1.740144014E0,3.539147139E0,-3.406728745E0
1.039979730E1,-9.059659205E-3,3.071425438E0,-3.487556934E0
1.041579730E1,-2.264876366E0,2.316859484E0,-3.635556936E0
1.043179730E1,-3.007557869E0,1.745938063E0,-3.557046413E0
1.044779730E1,-3.006983042E0,1.180322289E0,-4.142495632E0
1.046379730E1,-1.366351843E0,1.360576868E0,-3.756761074E0
1.047979730E1,1.178426027E0,1.824573278E0,-2.853419304E0
1.049579730E1,3.258843660E0,2.660140038E0,-2.695899963E0
1.051179730E1,3.670186758E0,4.143261909E0,-3.842693806E0
1.052779730E1,5.009149075E0,5.694914818E0,-4.219885826E0
1.054379730E1,7.511338234E0,6.752233028E0,-1.655130744E0
1.055979730E1,8.224647522E0,2.078511715E0,7.320837021E0
1.057579730E1,5.986136436E0,-3.855526686E0,9.011507034E0
1.059179574E1,4.379062176E0,-5.616289616E0,8.903059959E0
1.060779730E1,7.976828575E0,-7.926004887E0,1.252375317E1
1.062379730E1,1.168398285E1,-1.008387947E1,1.351286507E1
1.063979730E1,1.216987133E1,-1.109269047E1,1.893847084E1
1.065579574E1,1.056519985E1,-9.392233849E0,2.345422173E1
1.067179730E1,9.252076149E0,-9.741709709E0,2.157107735E1
1.068779730E1,3.636284828E0,-1.392657280E1,1.275292587E1
1.070379730E1,-1.377106547E0,-1.767031097E1,9.974952698E0
1.071979574E1,-2.322797060E0,-1.760204697E1,8.406205177E0
1.073579574E1,-9.669988751E-1,-1.319305706E1,7.436974525E0
1.075179574E1,9.450297356E-1,-8.441093445E0,6.580358028E0
1.076779574E1,3.537777901E0,-6.444961071E0,4.325776577E0
1.078379574E1,5.521402836E0,-4.582252979E0,1.429520369E0
1.079979574E1,6.187172890E0,-2.055316925E0,-9.434494972E-1
1.081579574E1,5.321898460E0,1.034946442E0,-3.419188261E0
1.083179574E1,3.304151535E0,4.418834686E0,-6.082603455E0
1.084779574E1,1.756769419E0,5.112118721E0,-6.479906559E0
1.086379574E1,1.547669411E0,2.234910727E0,-4.546723366E0
1.087979574E1,1.413852692E0,-5.041326880E-1,-2.736151218E0
1.089579574E1,4.952645600E-1,-9.063873291E-1,-2.492430925E0
1.091179574E1,-1.250223398E0,6.180775166E-1,-3.070822239E0
1.092779574E1,-2.508567810E0,2.719918489E0,-3.216849327E0
1.094379574E1,-2.692346811E0,4.076482773E0,-2.799913645E0
1.095979574E1,-2.442794323E0,4.363451481E0,-2.678489208E0
1.097579574E1,-1.759757400E0,3.804846287E0,-2.800114632E0
1.099179574E1,-1.203048110E0,3.002386570E0,-2.993403435E0
1.100779574E1,-1.151831269E0,2.358690977E0,-2.497927904E0
1.102379574E1,-1.483140826E0,2.208344698E0,-1.817457676E0
1.103979574E1,-1.575748682E0,2.404956579E0,-1.418152690E0
1.105579574E1,-7.448360920E-1,2.747001648E0,-9.112715125E-1
1.107179574E1,1.444948614E-1,3.226952791E0,7.544512153E-1
1.108779574E1,-1.023473382E0,7.258491516E0,1.423017681E-1
1.110379574E1,-5.045014381E0,2.537218857E1,6.185008526E0
1.111979574E1,-7.125259399E0,3.734812164E1,1.317182541E1
1.113579574E1,5.088693619E0,1.650343323E1,1.631714630E1
1.115179574E1,-7.296473384E-1,2.762405968E1,1.699934006E1
1.116779574E1,-8.587368965E0,3.213210297E1,1.210130119E1
1.118379574E1,-1.164262867E1,3.862462234E1,1.394823551E0
1.119979574E1,-2.728998184E1,3.731789398E1,5.046019331E-2
1.121579574E1,-3.399636459E1,3.379899216E1,-1.073186517E0
1.123179574E1,-1.856305122E1,3.198876572E1,5.372014046E-1
1.124779574E1,-8.600537300E0,2.694617653E1,5.878301144E0
1.126379574E1,-3.728059292E0,2.372188568E1,6.256546974E0
1.127979574E1,1.499727927E-2,1.977613449E1,6.716042042E0
1.129579574E1,1.601577282E0,1.575550365E1,6.485116482E0
1.131179574E1,2.641254663E0,1.004272747E1,6.398427010E0
1.132779574E1,3.234681368E0,5.493515015E0,4.349096298E0
1.134379574E1,3.676928759E0,2.437124968E0,1.932149529E0
1.135979574E1,3.466737032E0,4.021013677E-1,1.075188071E-1
1.137579574E1,3.038883448E0,1.554986089E-1,-1.056369662E0
1.139179574E1,2.157951355E0,1.677550077E0,-2.048383236E0
1.140779574E1,1.694022179E0,4.107511520E0,-2.762085199E0
1.142379574E1,5.653667450E-1,6.486572266E0,-4.068543434E0
1.143979574E1,-6.126570702E-1,7.135918140E0,-4.983253002E0
1.145579730E1,-1.913493872E0,5.428229809E0,-4.825321674E0
1.147179730E1,-2.615655661E0,3.681487322E0,-3.833222151E0
1.148779574E1,-2.769842386E0,3.034516573E0,-2.966052055E0
1.150379574E1,-1.985750914E0,2.886076212E0,-2.959137440E0
1.151979730E1,-5.035485029E-1,2.505790710E0,-2.627952337E0
1.153579730E1,9.146712422E-1,2.633669615E0,-2.660494328E0
1.155179730E1,2.609076500E0,3.893393278E0,-1.932302713E0
1.156779730E1,3.873856783E0,5.690289497E0,-2.422740459E0
1.158379730E1,4.339634418E0,7.670782566E0,-2.133051872E0
1.159979730E1,3.519811869E0,1.735958934E0,4.658187389E0
1.161579730E1,2.609153032E0,-5.032995224E0,7.762796879E0
1.163179574E1,3.874249220E0,-5.977373600E0,8.943539619E0
1.164779730E1,8.491534233E0,-6.928062916E0,1.238772392E1
1.166379730E1,8.287356377E0,-8.177549362E0,1.593696499E1
1.167979730E1,6.314295292E0,-1.315885830E1,1.747574806E1
1.169579730E1,5.596044540E0,-1.660977364E1,1.630742455E1
1.171179730E1,2.201449156E0,-1.972529030E1,1.249347210E1
1.172779730E1,-1.561325908E0,-2.250652122E1,1.189176941E1
1.174379730E1,-6.175316572E-1,-2.096677208E1,1.046448994E1
1.175979730E1,2.989428997E0,-1.646758842E1,1.089235306E1
1.177579730E1,5.043826103E0,-1.113273144E1,7.911342621E0
1.179179730E1,5.545363903E0,-7.577696323E0,6.099142551E0
1.180779730E1,6.691190243E0,-5.541418076E0,4.576919079E0
1.182379730E1,7.536554337E0,-3.232698917E0,2.188080072E0
1.183979730E1,6.297995567E0,7.728483062E-3,8.090103269E-1
1.185579730E1,3.734418392E0,3.600448370E0,-7.749552280E-2
1.187179730E1,1.953074813E0,5.878483295E0,-1.050480008E0
1.188779730E1,1.278723955E0,6.043616295E0,-2.510464191E0
1.190379730E1,1.366935968E0,4.165336609E0,-3.810592175E0
1.191979574E1,1.710772038E0,2.049925089E0,-4.216055393E0
1.193579730E1,8.298494816E-1,7.722641230E-1,-3.965650320E0
1.195179730E1,-1.040500879E0,7.835551500E-1,-3.454124212E0
1.196779730E1,-2.772811174E0,1.969872594E0,-3.188387156E0
1.198379730E1,-2.803792238E0,3.017124891E0,-3.189143896E0
1.199979730E1,-2.046707392E0,3.287545443E0,-3.429100037E0
1.201579730E1,-1.264780164E0,3.231913805E0,-3.344268799E0
1.203179574E1,-6.384474039E-1,3.252705097E0,-3.000221968E0
1.204779574E1,-1.767208129E-1,3.237142563E0,-2.241461277E0
1.206379730E1,1.869679987E-1,2.929602623E0,-1.142838597E0
1.207979730E1,3.436541557E-1,2.808388948E0,-5.238896608E-1
1.209579574E1,9.398487210E-1,3.837435961E0,-1.362760544E0
1.211179574E1,7.324628830E-1,4.602115154E0,-5.527637601E-1
1.212779574E1,-2.268448830E0,5.549434185E0,2.671182156E0
1.214379574E1,-7.723464966E0,1.096730137E1,1.087037468E1
1.215979574E1,-1.075451469E1,3.265110779E1,8.375205040E0
1.217579574E1,-5.461183548E0,2.557923889E1,7.828350067E0
1.219179574E1,-1.350554752E1,2.891527176E1,8.609539986E0
1.220779574E1,-2.072217941E1,3.462077713E1,3.462082863E0
1.222379574E1,-2.589609718E1,4.369128799E1,-2.087207556E0
1.223979574E1,-1.692477608E1,3.379508591E1,3.900346279E0
1.225579574E1,-1.446666718E1,3.519068527E1,3.783212185E0
1.227179574E1,-1.089381790E1,3.301039124E1,4.339212894E0
1.228779574E1,-8.045514107E0,2.947460556E1,5.404776573E0
1.230379574E1,-5.557670116E0,2.441419220E1,6.302371979E0
1.231983480E1,-2.603043318E0,2.013602066E1,7.124971867E0
1.233579574E1,-5.882074833E-1,1.586501503E1,6.133312702E0
1.235179574E1,8.280586004E-1,1.024075699E1,4.957012653E0
1.236779574E1,2.062872887E0,5.294633389E0,3.146986485E0
1.238379574E1,2.987293482E0,1.930674672E0,1.267930865E0
1.239979574E1,3.383437872E0,1.509304792E-1,-4.657967091E-1
1.241579730E1,3.325565338E0,3.259944916E-2,-1.619562507E0
1.243179730E1,3.162271261E0,1.595716357E0,-2.331990719E0
1.244779730E1,3.156075001E0,4.101660252E0,-3.015295982E0
1.246379730E1,2.528631449E0,6.454873085E0,-4.130352020E0
1.247979730E1,1.001762748E0,7.247746468E0,-4.802510262E0
1.249579730E1,-1.051859021E0,6.372072220E0,-4.376025677E0
1.251179730E1,-2.304371357E0,5.031941414E0,-3.486474752E0
1.252779730E1,-2.383830070E0,4.037581921E0,-2.646119595E0
1.254379730E1,-1.597871065E0,3.463969231E0,-2.484750509E0
1.255979730E1,-3.189364076E-1,3.649769068E0,-2.545831203E0
1.257579574E1,1.123321176E0,4.760908127E0,-3.003028154E0
1.259179730E1,1.561527133E0,5.466383934E0,-3.213880539E0
1.260779574E1,1.301507235E0,5.294039726E0,-2.942694187E0
1.262379730E1,5.631449819E-1,3.078866720E0,-4.242525436E-3
1.263979730E1,3.158814013E-1,6.130018234E-1,2.293195009E0
1.264383949E1,8.624871820E-2,-1.619916856E-1,2.752556086E0
1.265579730E1,-3.965276778E-1,-2.275496960E0,2.582730770E0
1.267246397E1,-1.389201999E0,-6.007071495E0,8.439139366E0
1.267246397E1,-1.389201999E0,-6.007071495E0,8.439139366E0
1.270579730E1,-1.389201999E0,-6.007071495E0,8.439139366E0
1.272246397E1,5.653697014E0,-1.243285942E1,1.486450672E1
1.273913063E1,3.095032454E0,-1.682748413E1,1.319917679E1
1.275579730E1,2.952625453E-1,-2.221634293E1,1.291839409E1
1.277246396E1,-2.246048689E0,-2.236263847E1,1.230937576E1
1.278913063E1,-1.770177007E0,-1.971356964E1,1.211938190E1
1.280579730E1,1.455023408E0,-1.856686211E1,1.207194805E1
1.282246396E1,3.704778194E0,-1.443356895E1,8.375894547E0
1.283913063E1,4.760486603E0,-9.504751205E0,5.688450813E0
1.285579730E1,4.759385586E0,-5.749656200E0,4.568366528E0
1.287246396E1,5.602067947E0,-3.411967278E0,3.546550035E0
1.288913063E1,5.287441254E0,2.886066735E-1,1.717839718E0
1.290579729E1,4.124979496E0,5.375260830E0,6.880265474E-1
1.292246396E1,2.797768354E0,8.954812050E0,-5.997666717E-1
1.293913062E1,2.652832985E0,8.193350792E0,-2.337219715E0
1.295579729E1,2.766232014E0,4.709069252E0,-3.911091328E0
1.297246396E1,2.494557142E0,2.244909048E0,-5.385565281E0
1.298913062E1,2.052242756E0,1.476494670E0,-5.085265160E0
1.300579729E1,7.226275802E-1,1.936277151E0,-3.805669785E0
1.302246396E1,-7.447307706E-1,2.678757429E0,-3.197456360E0
1.303913062E1,-2.149878263E0,2.449412107E0,-2.857001066E0
1.305579729E1,-2.622369051E0,1.981881857E0,-3.054139376E0
1.307246395E1,-2.622369051E0,1.981881857E0,-3.054139376E0
1.308913062E1,-2.622369051E0,1.981881857E0,-3.054139376E0
1.310579729E1,-2.622369051E0,1.981881857E0,-3.054139376E0
1.312246395E1,-2.622369051E0,1.981881857E0,-3.054139376E0
1.313913062E1,-1.634167075E0,4.108431339E0,1.315288186E0
1.315579728E1,-6.989536881E-1,2.685710192E0,3.678700447E0
1.317246395E1,-6.989536881E-1,2.685710192E0,3.678700447E0
1.318913062E1,-5.559010506E0,2.006602478E1,6.122127056E0
1.320579728E1,-5.559010506E0,2.006602478E1,6.122127056E0
1.322246395E1,1.756194830E0,1.968135262E1,5.596839428E0
1.323913061E1,-7.730848789E0,3.184478951E1,1.023253083E0
1.325579728E1,-1.539747429E1,3.611344910E1,1.564524651E0
1.327246394E1,-2.256646347E1,4.179052353E1,3.555351257E0
1.328913061E1,-1.887993813E1,4.238566589E1,4.399479389E0
1.330579728E1,-1.390273666E1,3.724153137E1,5.741506577E0
1.332246394E1,-1.390273666E1,3.724153137E1,5.741506577E0
1.333913061E1,-7.360628605E0,2.823280907E1,6.573740005E0
1.335579728E1,-4.981979370E0,2.298911476E1,5.817996025E0
1.337246394E1,-2.807670593E0,1.893397903E1,5.381312847E0
1.338913061E1,-5.999965072E-1,1.403501129E1,4.757422447E0
1.340579727E1,1.307674646E0,9.191263199E0,2.720330238E0
1.342246394E1,2.018704653E0,4.516651630E0,1.094705701E0
1.343913060E1,2.183147907E0,1.529789567E0,-2.111111283E-1
1.345579727E1,2.183147907E0,1.529789567E0,-2.111111283E-1
1.347246394E1,2.993795872E0,2.300291538E0,-3.179193258E0
1.348913060E1,2.993795872E0,2.300291538E0,-3.179193258E0
1.350579727E1,2.350713491E0,5.440584183E0,-3.485488415E0
1.352246394E1,7.411586046E-1,5.425241470E0,-3.100452900E0
1.353913060E1,-1.440370798E0,4.552229881E0,-2.475125790E0
1.355579727E1,-2.511479139E0,3.477568388E0,-2.059492111E0
1.357246393E1,-1.648130178E0,2.297313213E0,-1.675376058E0
1.358913060E1,-1.943612993E-1,1.621305585E0,-1.135589004E0
1.360579727E1,9.827144742E-1,2.487316847E0,-1.936756015E0
1.362246393E1,1.511727691E0,4.455695152E0,-3.434788704E0
1.363913060E1,1.214128375E0,6.606167316E0,-3.976788044E0
1.365579726E1,1.440552831E0,8.132020950E0,-4.475940704E0
1.367246393E1,2.226961851E0,7.988818645E0,-2.167671919E0
1.368913060E1,1.306065798E0,2.946419477E0,1.699634194E0
1.370579726E1,6.391369104E-1,-2.380430222E0,5.362054348E0
1.372246393E1,1.520605385E-1,-5.978666306E0,7.411059856E0
1.373913059E1,7.866676450E-1,-6.664097786E0,1.018902302E1
1.375579726E1,4.292994976E0,-8.868103981E0,1.418599892E1
1.377246392E1,6.937908173E0,-9.193543434E0,1.958485794E1
1.378913059E1,1.008675289E1,-1.373831272E1,2.072659302E1
1.380579726E1,6.370453835E0,-2.258436203E1,1.482258892E1
1.382246392E1,1.232190251E0,-2.613537216E1,1.390130997E1
1.383913059E1,1.873060584E0,-2.109277344E1,1.163940239E1
1.385579726E1,4.112099171E0,-1.671356773E1,1.288855267E1
1.387246392E1,3.899177790E0,-7.251854897E0,7.598908901E0
1.387246392E1,3.899177790E0,-7.251854897E0,7.598908901E0
1.390579725E1,3.899177790E0,-7.251854897E0,7.598908901E0
1.392246392E1,5.968888760E0,5.792962551E0,3.068313003E-1
1.393913059E1,5.201824665E0,9.191484451E0,-2.523163080E0
1.395579725E1,4.581075191E0,8.051729202E0,-4.472857475E0
1.397246392E1,3.103239775E0,3.518719912E0,-5.468088150E0
1.398913058E1,3.103239775E0,3.518719912E0,-5.468088150E0
1.400579725E1,1.095874012E-1,2.406306982E0,-4.939113617E0
1.402246392E1,-4.867699146E-1,3.256085634E0,-2.979018927E0
1.403913058E1,-1.203364134E0,3.188348770E0,-2.040482283E0
1.405579725E1,-1.859346509E0,2.632367134E0,-2.096161842E0
1.407246391E1,-2.172240019E0,1.925416946E0,-1.758148551E0
1.408913058E1,-2.203086853E0,2.205136538E0,-2.232008696E0
1.410579725E1,-1.895547032E0,3.564650297E0,-2.154647350E0
1.412246391E1,-8.036281466E-1,4.835904121E0,-1.471888185E0
1.413913058E1,6.257868409E-1,5.007367611E0,-7.462343574E-1
1.415579724E1,1.678977013E0,3.199563265E0,4.451299608E-1
1.417246391E1,2.113687515E0,2.058342993E-1,1.238290668E0
1.418913058E1,1.977141380E0,-1.402542472E0,1.611067891E0
1.420579724E1,1.643255472E0,1.908284068E0,-4.266180098E-1
1.422246391E1,2.935195446E0,7.741536140E0,-1.653435707E0
1.423913057E1,2.513059616E0,1.347053528E1,2.423746109E0
1.425579724E1,-5.236186028E0,2.624388885E1,5.203060150E0
1.427246390E1,-5.236186028E0,2.624388885E1,5.203060150E0
1.428913057E1,-2.381394768E1,4.111290741E1,3.853381395E0
1.430579724E1,-2.381394768E1,4.111290741E1,3.853381395E0
1.432246390E1,-1.193062305E1,4.345603561E1,8.316594958E-1
1.433913057E1,-9.759542465E0,3.891755676E1,4.338552475E0
1.435579724E1,-9.759542465E0,3.891755676E1,4.338552475E0
1.435579724E1,-7.101671219E0,3.235405350E1,4.907471657E0
1.438913057E1,1.162777543E0,2.238039398E1,6.346186161E0
1.440579723E1,3.514525414E0,1.789709854E1,6.015795708E0
1.442246390E1,3.644894361E0,1.259125042E1,5.137449265E0
1.443913057E1,3.476610661E0,7.553256512E0,3.427520037E0
1.445579723E1,3.145004034E0,3.824363708E0,1.546520233E0
1.447246390E1,2.799070835E0,1.306142330E0,-2.774305046E-1
1.448913056E1,1.881009340E0,7.336121202E-1,-2.158784628E0
1.450579723E1,1.724916935E0,1.456507802E0,-3.511910915E0
1.452246390E1,1.243155718E0,3.412963152E0,-4.315414429E0
1.453913056E1,4.233906046E-2,4.873905182E0,-3.771020889E0
1.455579723E1,-1.975340962E0,5.460283279E0,-3.987763166E0
1.457246389E1,-3.603273392E0,5.008277416E0,-4.221274376E0
1.458913056E1,-4.104849339E0,3.365759373E0,-3.178791285E0
1.460579723E1,-3.371083975E0,1.286289692E0,-2.259408236E0
1.462246389E1,-1.958284616E0,6.762757897E-1,-2.595285892E0
1.463913056E1,-5.169560388E-2,1.376972437E0,-3.671977520E0
1.465579722E1,-5.169560388E-2,1.376972437E0,-3.671977520E0
1.467246389E1,-5.169560388E-2,1.376972437E0,-3.671977520E0
1.468913056E1,-5.169560388E-2,1.376972437E0,-3.671977520E0
1.470579722E1,-5.169560388E-2,1.376972437E0,-3.671977520E0
1.472246389E1,-5.169560388E-2,1.376972437E0,-3.671977520E0
1.473913055E1,-5.169560388E-2,1.376972437E0,-3.671977520E0
1.475579722E1,3.347764492E0,-5.694723606E0,5.476410866E0
1.477246388E1,2.511163235E0,-9.478366852E0,1.191304016E1
1.478913055E1,2.511163235E0,-9.478366852E0,1.191304016E1
1.480579722E1,2.511163235E0,-9.478366852E0,1.191304016E1
1.482246388E1,2.511163235E0,-9.478366852E0,1.191304016E1
1.483913055E1,9.099144936E0,-1.677185249E1,2.070390701E1
1.485579722E1,8.566750526E0,-1.907394409E1,1.817549515E1
1.487246388E1,4.607382774E0,-1.740319252E1,1.624301147E1
1.488913055E1,3.741811514E0,-1.394461632E1,1.496848202E1
1.490579721E1,4.496234417E0,-1.014252853E1,1.297490692E1
1.492246388E1,5.805814266E0,-8.369602203E0,9.720622063E0
1.493913055E1,6.043884277E0,-7.312888145E0,5.540699482E0
1.495579721E1,5.505850315E0,-5.282298565E0,1.884811401E0
1.497246388E1,3.804807901E0,-2.956168652E0,-1.482959032E0
1.498913054E1,1.468526721E0,1.008150503E-1,-4.154438019E0
1.500579721E1,-3.528861701E-1,2.846035480E0,-5.624764919E0
1.502246388E1,-1.013963580E0,4.052358627E0,-6.179022789E0
1.503913054E1,-3.136787415E-1,3.495543957E0,-5.245063782E0
1.505579721E1,-3.136787415E-1,3.495543957E0,-5.245063782E0
1.507246387E1,-4.580586553E-1,4.546435833E0,-2.277604103E0
1.508913054E1,-4.580586553E-1,4.546435833E0,-2.277604103E0
1.510579721E1,1.324568242E-1,4.914635181E0,-2.308374166E0
1.512246387E1,3.536331654E-1,3.927793264E0,-2.538419008E0
1.513913054E1,3.536331654E-1,3.927793264E0,-2.538419008E0
1.515579720E1,8.970977664E-1,3.599500179E0,-2.265422344E0
1.517246387E1,9.827144742E-1,3.079412699E0,-1.184057236E0
1.518913054E1,1.092110395E0,2.548943758E0,-2.069931030E-1
1.520579720E1,8.537244201E-1,2.016157150E0,4.527531266E-1
1.522246387E1,5.448245406E-1,1.500992060E0,9.916017652E-1
1.523913053E1,2.263957113E-1,1.152377248E0,1.661231160E0
1.525579720E1,-1.342572421E-1,1.126883626E0,2.888863087E0
1.527246386E1,-1.640353799E0,4.254889011E0,1.300875068E0
1.528913053E1,-6.335814476E0,1.845795441E1,3.989563704E0
1.530579720E1,-1.664167404E1,3.937331772E1,1.279209518E1
1.532246386E1,-1.790949106E0,1.177218437E1,7.329321861E0
1.533913053E1,-1.409751987E1,3.177350807E1,5.199382305E0
1.535579720E1,-3.056996346E1,3.673319244E1,3.982898235E0
1.537246386E1,-2.952907753E1,4.273094559E1,4.215968609E0
1.538913053E1,-2.047666740E1,3.625973511E1,-1.070284843E0
1.540579719E1,-1.271010876E1,2.946940422E1,1.928357005E0
1.542246386E1,-1.142237186E1,3.173554420E1,2.590152740E0
1.543913053E1,-8.496198654E0,2.469623756E1,6.623463154E0
1.545579719E1,-5.579466820E0,2.314447975E1,5.613598824E0
1.547246386E1,-5.579466820E0,2.314447975E1,5.613598824E0
1.547246386E1,1.310404062E0,1.657892799E1,6.152255535E0
1.550579719E1,1.310404062E0,1.657892799E1,6.152255535E0
1.552246386E1,2.970668077E0,2.470308542E0,2.465960741E0
1.553913052E1,2.447831869E0,2.134670317E-1,1.877341419E-1
1.555579719E1,2.038212538E0,-7.377397418E-1,-1.285379887E0
1.557246385E1,1.630106568E0,-2.661011517E-1,-2.190253973E0
1.558913052E1,1.630106568E0,-2.661011517E-1,-2.190253973E0
1.558913052E1,1.372251153E0,1.273389697E0,-2.927361488E0
1.562246385E1,1.752747148E-1,5.805718899E0,-3.953219652E0
1.563913052E1,-6.674172282E-1,7.513206005E0,-4.567284584E0
1.565579718E1,-1.093154192E0,7.901823044E0,-4.651895523E0
1.567246385E1,-1.624599934E0,6.812135696E0,-3.655879021E0
1.568913052E1,-4.511058927E-1,5.294892311E0,-2.662678003E0
1.570579718E1,7.443860769E-1,4.126454353E0,-2.934697628E0
1.572246385E1,3.958860338E-1,3.577492714E0,-3.350311756E0
1.573913051E1,-3.000988066E-1,2.819450140E0,-2.417865992E0
1.575579718E1,-5.437806249E-1,1.635622859E0,-1.134928226E0
1.577246384E1,2.229576409E-1,1.903390288E-1,5.121675730E-1
1.578913051E1,2.747298479E0,1.036402062E-1,6.316957474E-1
1.580579718E1,3.764498949E0,1.493560433E0,-3.574217558E0
1.582246384E1,-4.786679745E-1,-4.768033504E0,4.029135227E0
1.583913051E1,5.023226738E-1,-1.383966446E1,1.748442459E1
1.585579718E1,8.079242706E0,-1.695080376E1,1.796224976E1
1.587246384E1,8.079242706E0,-1.695080376E1,1.796224976E1
1.588913051E1,3.350905418E0,-2.000953102E1,1.262793922E1
1.590579717E1,2.565598011E0,-1.932213593E1,1.228541470E1
1.592246384E1,2.565598011E0,-1.932213593E1,1.228541470E1
1.593913051E1,2.245790005E0,-1.523713112E1,9.519240379E0
1.595579717E1,2.245790005E0,-1.523713112E1,9.519240379E0
1.597246384E1,2.787348986E0,-6.922336578E0,5.522072792E0
1.598913050E1,3.989506006E0,-2.854759932E0,2.883605242E0
1.600579717E1,3.989506006E0,-2.854759932E0,2.883605242E0
1.602246384E1,2.716499567E0,5.473384380E0,-2.050442219E0
1.603913050E1,2.525221825E0,7.745529652E0,-4.392508030E0
1.605579717E1,3.412953615E0,6.160587311E0,-5.256010056E0
1.607246383E1,3.617275000E0,3.217184544E0,-5.299507618E0
1.608913050E1,2.938882589E0,1.894943595E0,-4.580385685E0
1.610579717E1,1.993594289E0,2.058381319E0,-4.084211349E0
1.612246383E1,1.767974198E-1,3.022861481E0,-3.023886204E0
1.613913050E1,-1.124604344E0,4.213067532E0,-1.646502018E0
1.615579716E1,-9.744113684E-1,4.771241665E0,-1.520049930E0
1.617246383E1,6.750020981E-1,3.734571457E0,-2.989342690E0
1.618913050E1,1.009395480E0,2.000997305E0,-2.937896252E0
1.620579716E1,3.368162811E-1,5.497087240E-1,-2.246278286E0
1.622246383E1,-5.816569328E-1,-5.178179592E-2,-2.283349991E0
1.623913049E1,-8.421077728E-1,3.919595480E-1,-1.869248986E0
1.625579716E1,-7.539820075E-1,9.743347168E-1,-1.133434176E0
1.627246383E1,-3.281741858E0,2.736687422E0,2.877916813E0
1.628913049E1,-3.281741858E0,2.736687422E0,2.877916813E0
1.630579716E1,-1.227574253E1,1.790186691E1,1.865504503E0
1.632246382E1,-9.412037849E0,3.254612732E1,6.282940865E0
1.633913049E1,-9.412037849E0,3.254612732E1,6.282940865E0
1.635579716E1,-6.004657745E0,3.366585541E1,1.203384209E1
1.637246382E1,-6.004657745E0,3.366585541E1,1.203384209E1
1.638913049E1,-2.167353821E1,4.658115005E1,-3.588745594E0
1.640579715E1,-1.736036491E1,4.059351730E1,2.982351780E0
1.642246382E1,-1.736036491E1,4.059351730E1,2.982351780E0
1.643913048E1,-1.058039856E1,3.490308762E1,3.122153997E0
1.645579715E1,-7.278650761E0,2.707075882E1,3.074969053E0
1.647246382E1,-4.506874084E0,2.082908630E1,3.267893791E0
1.648913048E1,-1.327814698E0,1.461215782E1,4.125860691E0
1.650579715E1,1.634655476E0,9.574212074E0,3.474513531E0
1.652246382E1,3.840989113E0,5.330565453E0,2.964270830E0
1.653913048E1,5.289471626E0,1.183262348E0,2.433792353E0
1.655579715E1,5.805929661E0,-8.037526608E-1,1.187849641E0
1.657246381E1,6.206259251E0,-1.079095483E0,9.772173315E-2
1.658913048E1,5.975802898E0,6.328545809E-1,-1.425086260E0
1.660579714E1,5.748095036E0,4.630970001E0,-3.469083309E0
1.662246381E1,5.650689602E0,9.642953873E0,-4.867277622E0
1.663913048E1,4.556692600E0,1.314409065E1,-5.058191299E0
1.665579714E1,4.556692600E0,1.314409065E1,-5.058191299E0
1.667246381E1,-6.844955444E0,4.746542931E0,-4.248300076E0
1.668913048E1,-6.140811443E0,2.630605221E0,-3.751915216E0
1.670579714E1,-6.140811443E0,2.630605221E0,-3.751915216E0
1.672246381E1,-2.075102568E0,3.423507214E0,-3.741782904E0
1.673913047E1,-2.075102568E0,3.423507214E0,-3.741782904E0
1.675579714E1,-1.916721344E0,3.867612600E0,-3.233656645E0
1.677246380E1,-1.176730990E0,2.799894333E0,-1.596290946E0
1.678913047E1,2.849387228E-1,8.251376748E-1,6.211420894E-1
1.680579714E1,1.245588303E0,-2.564774275E0,2.176224232E0
1.682246380E1,1.774170518E0,-6.377808571E0,6.305627823E0
1.683913047E1,3.238521814E0,-7.653803349E0,9.841815948E0
1.685579714E1,6.343581200E0,-9.909197807E0,1.247132969E1
1.687246380E1,7.992132664E0,-1.454626942E1,1.482437992E1
1.688913047E1,5.522484779E0,-1.518486023E1,1.558631992E1
1.690579713E1,4.199851036E0,-1.583912849E1,1.566459179E1
1.692246380E1,3.676038027E0,-1.952123833E1,1.425271225E1
1.693913046E1,1.668595791E0,-2.052067375E1,1.287925434E1
1.695579713E1,1.472022176E0,-1.851388359E1,1.262724972E1
1.697246380E1,3.938490391E0,-1.622821426E1,1.295577240E1
1.698913046E1,5.060605049E0,-1.212686157E1,9.066037178E0
1.700579713E1,5.919999123E0,-8.763583183E0,6.530769348E0
1.702246380E1,6.039891243E0,-6.368059635E0,4.714930058E0
1.703913046E1,6.097160339E0,-4.064090252E0,3.654643536E0
1.705579713E1,4.277318001E0,4.507898986E-1,1.903246760E0
1.707246379E1,4.277318001E0,4.507898986E-1,1.903246760E0
1.708913046E1,1.042109847E0,7.380893230E0,-3.506145477E0
1.710579713E1,2.207808256E0,5.007789135E0,-4.086931229E0
1.712246379E1,2.768089771E0,2.971893787E0,-4.851763725E0
1.713913046E1,2.026308775E0,2.849004269E0,-4.640977859E0
1.715579712E1,2.026308775E0,2.849004269E0,-4.640977859E0
1.717246379E1,-7.669011354E-1,4.386618137E0,-2.222920418E0
1.718913046E1,-9.400210381E-1,4.069118023E0,-1.569351315E0
1.720579712E1,-5.867422223E-1,3.382575989E0,-1.246881127E0
1.722246379E1,-2.952816784E-1,2.765915871E0,-7.531583905E-1
1.723913045E1,2.604221106E-1,2.403261423E0,-1.061866879E0
1.725579712E1,8.394454122E-1,2.319138765E0,-9.322447181E-1
1.727246378E1,1.139352679E0,2.170497179E0,-9.080919623E-1
1.728913045E1,8.787869215E-1,1.837243319E0,-6.547854543E-1
1.730579712E1,7.011276484E-1,1.257367730E0,2.022621632E-1
1.732246378E1,1.051112056E0,2.182937264E-1,7.199652195E-1
1.733913045E1,1.899779916E0,1.129536510E0,4.817133844E-1
1.735579712E1,-4.698381573E-2,5.225967884E0,2.755898476E0
1.737246378E1,-4.651531696E0,2.092754555E1,7.924396038E0
1.738913045E1,-3.265940189E0,3.454061508E1,4.506739616E0
1.740579711E1,9.197469354E-1,2.621829796E1,6.388697147E0
1.742246378E1,-1.744110680E1,3.217208481E1,2.612265646E-1
1.743913044E1,-2.625647354E1,3.684680176E1,9.206758738E-1
1.745579711E1,-2.200013733E1,4.310564804E1,-6.006382108E-1
1.747246378E1,-2.200013733E1,4.310564804E1,-6.006382108E-1
1.748913044E1,-2.200013733E1,4.310564804E1,-6.006382108E-1
1.750579711E1,-4.227441788E0,2.741665459E1,3.976740122E0
1.752246378E1,-4.227441788E0,2.741665459E1,3.976740122E0
1.753913044E1,9.907015562E-1,1.762855530E1,5.526765823E0
1.755579711E1,9.907015562E-1,1.762855530E1,5.526765823E0
1.757246377E1,2.702986479E0,7.903240681E0,4.929642200E0
1.758913044E1,2.015295267E0,3.360558987E0,3.570990324E0
1.760579710E1,1.711576581E0,7.874816656E-1,1.526724935E0
1.762246377E1,1.579646349E0,-1.643763185E-1,-2.959999442E-1
1.763913044E1,1.777800083E0,5.074175596E-1,-1.615837216E0
1.765579710E1,1.891428947E0,2.212587118E0,-2.692873478E0
1.767246377E1,1.747757673E0,5.138291836E0,-3.951447964E0
1.768913044E1,1.450857520E0,9.408503532E0,-5.721835613E0
1.770579710E1,-5.626086593E-1,1.046941280E1,-4.870093822E0
1.772246377E1,-3.453597546E0,6.767479420E0,-3.070688248E0
1.773913043E1,-5.143770218E0,2.755180120E0,-2.677138805E0
1.775579710E1,-5.143770218E0,2.755180120E0,-2.677138805E0
1.777246376E1,-1.690143585E0,9.253589511E-1,-2.938959122E0
1.778913043E1,7.885255218E-1,1.199083209E0,-2.700879812E0
1.780579710E1,2.671622515E0,1.321905732E0,-2.514859915E0
1.782246376E1,2.976519585E0,1.201285839E0,-2.940386295E0
1.783913043E1,2.097588778E0,8.857780099E-1,-3.308805943E0
1.785579710E1,9.728215933E-1,2.634675205E-1,-2.192159891E0
1.787246376E1,9.728215933E-1,2.634675205E-1,-2.192159891E0
1.788913043E1,9.728215933E-1,2.634675205E-1,-2.192159891E0
1.790579709E1,9.728215933E-1,2.634675205E-1,-2.192159891E0
1.792246376E1,9.728215933E-1,2.634675205E-1,-2.192159891E0
1.793913043E1,9.728215933E-1,2.634675205E-1,-2.192159891E0
1.795579709E1,9.728215933E-1,2.634675205E-1,-2.192159891E0
1.797246376E1,1.235612106E1,-1.325579453E1,2.029429626E1
1.798913042E1,8.527419090E0,-1.598056793E1,1.410161781E1
1.800579709E1,8.527419090E0,-1.598056793E1,1.410161781E1
1.802246376E1,9.605249763E-1,-1.703384590E1,1.032134533E1
1.803913042E1,9.605249763E-1,-1.703384590E1,1.032134533E1
1.805579709E1,2.296729088E0,-1.006316471E1,7.582312584E0
1.807246375E1,3.927371740E0,-8.504366875E0,5.606818199E0
1.808913042E1,4.952358246E0,-6.829307079E0,2.382738352E0
1.810579709E1,4.278639793E0,-3.732292175E0,-2.992177308E-1
1.812246375E1,2.193730354E0,1.724208295E-1,-2.091555357E0
1.813913042E1,-1.799960732E-1,4.189450741E0,-3.513443232E0
1.815579708E1,-7.013478279E-1,6.567908287E0,-4.993490696E0
1.817246375E1,3.523786068E-1,5.417752743E0,-4.288656712E0
1.818913042E1,9.298600554E-1,2.576793194E0,-2.845537424E0
1.820579708E1,-2.897175550E-1,7.209899426E-1,-2.144764185E0
1.822246375E1,-2.179987907E0,1.028683066E0,-2.018541813E0
1.823913041E1,-3.152761459E0,2.784542799E0,-2.282421112E0
1.825579708E1,-2.842654705E0,4.067643166E0,-3.262616873E0
1.827246374E1,-2.842654705E0,4.067643166E0,-3.262616873E0
1.828913041E1,1.499727927E-2,5.199880600E0,-3.399670601E0
1.830579708E1,1.499727927E-2,5.199880600E0,-3.399670601E0
1.832246374E1,4.877276421E-1,4.490813255E0,-1.324980021E0
1.833913041E1,2.369493544E-1,3.995424509E0,-2.528564334E-1
1.835579708E1,2.031049132E-1,3.465137720E0,1.146066070E0
1.837246374E1,4.221743643E-1,3.038960218E0,2.120956182E0
1.838913041E1,1.704154372E0,3.707919359E0,1.019087195E0
1.840579707E1,1.679886818E0,4.804817677E0,3.494059563E0
1.842246374E1,-1.839455605E0,1.414743328E1,7.196347713E0
1.843913040E1,-7.081627369E0,3.939822006E1,9.471854210E0
1.845579707E1,7.256231308E0,1.922929001E1,5.411508560E0
1.847246374E1,4.097436965E-1,2.119197845E1,5.593132973E0
1.848913040E1,-1.454207420E1,3.197930527E1,3.620866299E0
1.850579707E1,-2.112180138E1,3.729360962E1,2.887541294E0
1.852246374E1,-1.956033897E1,4.228094864E1,1.518345237E0
1.853913040E1,-1.579310226E1,3.399191666E1,4.637645721E0
1.855579707E1,-1.325083351E1,3.479502106E1,1.927207828E0
1.857246373E1,-9.384217262E0,3.068789101E1,4.366286755E0
1.858913040E1,-4.340649605E0,2.660065460E1,5.067720890E0
1.860579706E1,-5.897876620E-1,2.332724380E1,5.283936024E0
1.862246373E1,1.770885587E0,1.984635162E1,7.036462784E0
1.863913040E1,3.525031090E0,1.616372490E1,6.664595604E0
1.865579706E1,5.096383572E0,1.267033577E1,5.691094398E0
1.867246373E1,5.096383572E0,1.267033577E1,5.691094398E0
1.868913040E1,5.096383572E0,1.267033577E1,5.691094398E0
1.870579706E1,2.126616240E0,1.248442173E0,-1.845450513E-2
1.872246373E1,2.126616240E0,1.248442173E0,-1.845450513E-2
1.873913039E1,2.126616240E0,1.248442173E0,-1.845450513E-2
1.875579706E1,5.620627999E-1,6.442241192E0,-3.330966473E0
1.877246372E1,-3.273065090E-1,8.175940514E0,-4.311947823E0
1.878913039E1,-1.649489999E0,8.259900093E0,-5.692022800E0
1.880579706E1,-2.713348866E0,6.655210495E0,-6.061898232E0
1.882246372E1,-3.178322077E0,4.796036243E0,-4.836086273E0
1.883913039E1,-2.964423895E0,2.817764759E0,-3.938471317E0
1.885579706E1,-2.958697081E0,1.322940111E0,-4.220651627E0
1.887246372E1,-2.952692270E0,8.055243492E-1,-4.728490829E0
1.888913039E1,-2.937407732E0,1.018014550E0,-5.211162090E0
1.890579705E1,-1.501490116E0,1.506585002E0,-4.878952026E0
1.892246372E1,7.993377447E-1,9.891021848E-1,-3.100251675E0
1.893913039E1,2.392008543E0,-5.096585155E-1,-1.831104636E0
1.895579705E1,2.293606997E0,-2.630260468E0,-8.006114364E-1
1.897246372E1,1.687969565E0,-6.096039772E0,4.175842285E0
1.898913038E1,2.929660082E0,-8.008987427E0,5.965459824E0
1.900579705E1,5.787091732E0,-9.085506439E0,1.256418610E1
1.902246372E1,8.489637375E0,-1.213644791E1,1.426809216E1
1.903913038E1,8.633108139E0,-1.679430008E1,1.759335899E1
1.905579705E1,9.268453598E0,-2.032831383E1,1.751214790E1
1.907246371E1,3.130016565E0,-2.366735268E1,1.319999981E1
1.908913038E1,3.130016565E0,-2.366735268E1,1.319999981E1
1.910579705E1,3.130016565E0,-2.366735268E1,1.319999981E1
1.912246371E1,2.834083557E0,-1.164816475E1,7.197200298E0
1.913913038E1,2.834083557E0,-1.164816475E1,7.197200298E0
1.915579704E1,3.962126017E0,-4.333973885E0,2.216101885E0
1.917246371E1,3.873425722E0,1.109090000E-1,-2.688209713E-2
1.918913038E1,3.873425722E0,1.109090000E-1,-2.688209713E-2
1.920579704E1,2.042186975E0,7.468223572E0,-4.017642975E0
1.922246371E1,2.042186975E0,7.468223572E0,-4.017642975E0
1.923913037E1,2.556346655E0,5.382462502E0,-4.245063305E0
1.925579704E1,2.756961584E0,2.847740173E0,-3.089966297E0
1.927246370E1,2.196507454E0,1.689655185E0,-2.260270119E0
1.928913037E1,1.067287207E0,1.894464731E0,-1.839379072E0
1.930579704E1,-1.072698161E-1,2.515731335E0,-1.646185994E0
1.932246370E1,-3.546578884E-1,2.989649057E0,-1.746799946E0
1.933913037E1,-2.283110768E-1,3.247428179E0,-2.592489481E0
1.935579704E1,-2.283110768E-1,3.247428179E0,-2.592489481E0
1.937246370E1,-2.527989745E-1,3.035617828E0,-3.322136641E0
1.938913037E1,-1.314608306E-1,2.509305477E0,-2.582701921E0
1.940579703E1,2.051447779E-1,1.614458084E0,-1.467387080E0
1.942246370E1,2.764440775E-1,7.792743444E-1,-5.090838671E-1
1.943913036E1,-1.992741972E-1,2.187821567E-1,1.056178093E0
1.945579703E1,-1.134018421E0,4.824124873E-1,1.018129468E0
1.947246370E1,-1.134018421E0,4.824124873E-1,1.018129468E0
1.948913036E1,-1.134018421E0,4.824124873E-1,1.018129468E0
1.950579703E1,-1.134018421E0,4.824124873E-1,1.018129468E0
1.952246370E1,2.346509248E-1,2.717998314E1,9.213682175E0
1.953913036E1,2.346509248E-1,2.717998314E1,9.213682175E0
1.955579703E1,2.346509248E-1,2.717998314E1,9.213682175E0
1.957246369E1,-1.605986404E1,4.061143875E1,3.186165333E0
1.958913036E1,-1.605986404E1,4.061143875E1,3.186165333E0
1.960579702E1,-1.533522606E1,3.545709991E1,4.236415386E0
1.962246369E1,-1.533522606E1,3.545709991E1,4.236415386E0
1.963913036E1,-8.084845543E0,2.749054909E1,4.655142307E0
1.965579702E1,-2.573891401E0,2.337058830E1,4.556146622E0
1.967246369E1,1.457714438E0,1.962886238E1,4.926156044E0
1.968913036E1,4.174281120E0,1.565448856E1,5.208595276E0
1.970579702E1,5.961696148E0,1.116095448E1,4.702873230E0
1.972246369E1,6.201030254E0,6.482032776E0,3.744138956E0
1.973913035E1,5.175363541E0,2.907441854E0,2.541626930E0
1.975579702E1,5.175363541E0,2.907441854E0,2.541626930E0
1.977246368E1,2.529186726E0,2.900336087E-1,-1.154053092E0
1.978913035E1,1.910352707E0,1.456258774E0,-2.978329420E0
1.980579702E1,1.106092453E0,3.388073206E0,-3.909721613E0
1.982246368E1,7.670256495E-1,5.452574253E0,-4.020401001E0
1.983913035E1,-1.387966573E-1,6.723761082E0,-4.062797546E0
1.985579702E1,-2.240312099E0,6.510217190E0,-4.287421227E0
1.987246368E1,-4.141327381E0,5.037132263E0,-2.091248989E0
1.988913035E1,-2.475728989E0,3.731947422E0,-1.739473701E0
1.990579701E1,-2.475728989E0,3.731947422E0,-1.739473701E0
1.992246368E1,3.537672386E-2,1.216867447E0,-3.808035135E0
1.993913035E1,3.537672386E-2,1.216867447E0,-3.808035135E0
1.995579701E1,1.044791222E0,9.543287754E-1,-2.231395960E0
1.997246368E1,1.993536830E0,1.646205187E0,-1.497918010E0
1.998913034E1,2.837962151E0,1.645486951E0,-9.394846857E-2
2.000579701E1,3.472598076E0,5.852386355E-2,-7.174943388E-2
2.002246368E1,2.675127745E0,-4.137515545E0,2.619017363E0
2.003913034E1,1.634847164E0,-8.645318031E0,1.222286892E1
2.005579701E1,3.702719212E0,-1.178674126E1,1.506413460E1
2.007246367E1,7.276390553E0,-1.303310585E1,1.461713791E1
2.008913034E1,7.575599194E0,-1.444972515E1,1.781323433E1
2.010579701E1,5.654788494E0,-1.587477303E1,1.661490822E1
2.012246367E1,4.695929527E0,-1.866038895E1,1.542756557E1
2.013913034E1,4.165968418E0,-1.951667976E1,1.371194744E1
2.015579700E1,3.820073128E0,-1.830327988E1,1.253953552E1
2.017246367E1,3.350895882E0,-1.610804558E1,1.052570534E1
2.018913034E1,2.701377630E0,-1.223432350E1,7.653266907E0
2.020579700E1,3.366333723E0,-9.423069954E0,6.438918114E0
2.022246367E1,4.350005627E0,-6.542453289E0,3.888959169E0
2.023913033E1,3.655160666E0,-2.734695673E0,1.182793140E0
2.025579700E1,1.367960691E0,2.994293928E0,-1.637174368E0
2.027246366E1,1.367960691E0,2.994293928E0,-1.637174368E0
2.028913033E1,3.306536198E0,8.286092758E0,-4.318239689E0
2.030579700E1,3.306536198E0,8.286092758E0,-4.318239689E0
2.032246366E1,2.791926622E0,1.404917538E-1,-8.945695162E-1
2.033913033E1,2.286625385E0,-4.983578920E-1,-1.729284078E-1
2.035579700E1,1.696244001E0,3.543514311E-1,-1.211504340E0
2.037246366E1,1.127458215E0,1.346862912E0,-2.469341278E0
2.038913033E1,6.662679911E-1,2.058247328E0,-3.131577730E0
2.040579699E1,6.439157724E-1,2.402619600E0,-3.146220446E0
2.042246366E1,5.442882180E-1,2.496951103E0,-2.707497358E0
2.043913032E1,5.908219814E-1,2.043269157E0,-2.031470537E0
2.045579699E1,-4.518624842E-1,1.241642594E0,-1.425833225E0
2.047246366E1,-1.881545663E0,1.346633077E0,-8.642780781E-1
2.048913032E1,-3.749310255E0,2.210997343E0,-8.828475475E-1
2.050579699E1,-4.020793915E0,3.251651525E0,-4.531017303E0
2.052246366E1,-1.818128109E0,2.946946383E0,-3.266275406E0
2.053913032E1,-2.542172909E0,4.342248440E0,-5.567093492E-1
2.055579699E1,-1.082012463E1,1.327966022E1,2.733498335E0
2.057246365E1,-1.773845863E1,3.723185730E1,4.721126556E0
2.058913032E1,-8.835178614E-1,2.938242722E1,9.522908211E0
2.060579698E1,-4.667630196E0,3.075401878E1,1.102413940E1
2.062246365E1,-7.854849339E0,3.397718048E1,4.546387672E0
2.063913032E1,-1.399982643E1,3.955543137E1,-4.087381065E-2
2.065579698E1,-1.685129166E1,3.765511322E1,2.201401472E0
2.067246365E1,-1.685129166E1,3.765511322E1,2.201401472E0
2.068913032E1,-1.685129166E1,3.765511322E1,2.201401472E0
2.070579698E1,-5.207513332E0,2.383734131E1,1.990788341E0
2.072246365E1,-5.207513332E0,2.383734131E1,1.990788341E0
2.073913031E1,8.171697855E-1,1.622627068E1,4.836392403E0
2.075579698E1,2.651587963E0,1.098497105E1,4.955375195E0
2.077246365E1,2.651587963E0,1.098497105E1,4.955375195E0
2.078913031E1,4.370682240E0,2.031786680E0,1.709048271E0
2.080579698E1,5.175928593E0,1.319779754E-1,-1.289574504E0
2.082246364E1,5.175928593E0,1.319779754E-1,-1.289574504E0
2.083913031E1,5.254995346E0,9.435070306E-2,-3.957749605E0
2.085579698E1,3.425920725E0,9.302718639E-1,-2.755141973E0
2.087246364E1,3.425920725E0,9.302718639E-1,-2.755141973E0
2.088913031E1,-8.144307733E-1,2.285974026E0,-2.214339495E0
2.090579697E1,-8.144307733E-1,2.285974026E0,-2.214339495E0
2.092246364E1,-9.241906404E-1,1.395340711E-1,-4.292583466E0
2.093913031E1,1.554162502E0,-6.678960323E-1,-4.849647045E0
2.095579697E1,3.115756512E0,-5.050424933E-1,-4.328448772E0
2.097246364E1,3.456470728E0,7.422408462E-1,-4.173878670E0
2.098913030E1,4.103853226E0,2.051112652E0,-3.650362730E0
2.100579697E1,3.950490236E0,4.237325191E0,-3.629571438E0
2.102246364E1,4.244335651E0,6.189384937E0,-2.374272346E0
2.103913030E1,5.645326614E0,6.945435524E0,-8.696411252E-1
2.105579697E1,8.021054268E0,7.003221989E0,6.744369864E-1
2.107246363E1,9.881348908E-2,-5.110739708E0,1.194243145E1
2.108913030E1,9.881348908E-2,-5.110739708E0,1.194243145E1
2.110579696E1,9.881348908E-2,-5.110739708E0,1.194243145E1
2.112246363E1,7.277980328E0,-8.254019737E0,1.986159706E1
2.113913030E1,7.277980328E0,-8.254019737E0,1.986159706E1
2.115579696E1,5.595421791E0,-5.588497639E0,2.081616592E1
2.117246363E1,5.595421791E0,-5.588497639E0,2.081616592E1
2.118913030E1,2.959453583E0,-1.642635918E1,1.719304085E1
2.120579696E1,3.246030092E0,-1.808418083E1,1.624748421E1
2.122246363E1,3.850067854E0,-1.406416321E1,1.390443134E1
2.123913029E1,5.647174835E0,-1.137908459E1,9.967894554E0
2.125579696E1,5.978560925E0,-9.760241508E0,6.481966019E0
2.127246362E1,4.438361168E0,-6.773149014E0,3.558923244E0
2.128913029E1,1.291863441E0,-2.367147207E0,1.206706405E0
2.130579696E1,-1.226750612E0,2.671230078E0,-6.658275127E-1
2.132246362E1,-2.132754803E0,6.443007469E0,-2.650783539E0
2.133913029E1,-7.481592894E-1,7.376468182E0,-4.819365025E0
2.135579696E1,8.693442345E-1,5.982200146E0,-6.012626171E0
2.137246362E1,1.027476430E0,4.312761784E0,-5.429081917E0
2.138913029E1,3.327269852E-1,2.935731888E0,-3.167471409E0
2.140579695E1,-5.418270230E-1,2.623413086E0,-1.770406842E0
2.142246362E1,-1.252588868E0,2.781631231E0,-1.853590965E0
2.143913028E1,-5.041997433E-1,3.097177744E0,-2.716796398E0
2.145579695E1,9.995217323E-1,3.302207470E0,-3.106256247E0
2.147246362E1,2.255414486E0,4.988788605E0,-3.291950703E0
2.148913028E1,2.693783522E0,4.887686253E0,-2.050662518E0
2.150579695E1,2.693783522E0,4.887686253E0,-2.050662518E0
2.152246362E1,2.014356852E0,2.555034637E0,1.335466504E0
2.153913028E1,1.503252149E0,2.023368597E0,2.008256435E0
2.155579695E1,1.157031536E0,1.862229228E0,4.336416721E0
2.157246361E1,2.053640842E0,6.116007328E0,-9.256079793E-1
2.158913028E1,1.907652020E0,1.440659142E1,3.249621391E0
2.158913028E1,1.907652020E0,1.440659142E1,3.249621391E0
2.162246361E1,5.396147370E-1,2.825983620E1,6.667047501E0
2.163913028E1,-1.040563202E1,3.022970772E1,4.468815804E0
2.165579694E1,-2.846712494E1,3.251419830E1,5.682446480E0
2.167246361E1,-2.958541870E1,4.028237534E1,7.702051401E-1
2.168913028E1,-1.756603622E1,4.156519318E1,2.859337568E0
2.170579694E1,-1.073974705E1,3.915820312E1,7.931118488E0
2.172246361E1,-7.681662083E0,3.388966751E1,7.096136093E0
2.173913027E1,-6.602739334E0,2.769488144E1,8.063729286E0
2.175579694E1,-4.042647839E0,2.264970398E1,7.271142483E0
2.177246361E1,-7.799064517E-1,1.875592804E1,6.908708572E0
2.178913027E1,1.631303668E0,1.336563110E1,7.048242569E0
2.180579694E1,3.503291845E0,8.780974388E0,4.466871738E0
2.182246360E1,5.491762161E0,5.225814342E0,9.603621960E-1
2.183913027E1,6.173142433E0,2.156993628E0,2.331473529E-1
2.185579694E1,5.919740200E0,1.943718314E0,-6.399509907E-1
2.187246360E1,5.919740200E0,1.943718314E0,-6.399509907E-1
2.188913027E1,-7.946068048E-1,4.526113987E0,-7.379408836E0
2.190579693E1,-4.367636681E0,3.818397522E0,-6.797445297E0
2.192246360E1,-4.367636681E0,3.818397522E0,-6.797445297E0
2.193913027E1,-3.371639490E0,1.672914863E0,-4.536657810E0
2.195579693E1,-3.371639490E0,1.672914863E0,-4.536657810E0
2.197246360E1,1.547793984E0,2.190454960E0,-4.200828075E0
2.198913026E1,2.557486296E0,3.189900398E0,-3.959875584E0
2.200579693E1,3.600084543E0,4.147016048E0,-4.320423126E0
2.202246360E1,4.115843296E0,3.701464653E0,-3.784840345E0
2.203913026E1,2.919461012E0,2.652210474E0,-2.112107277E0
2.205579693E1,1.927571774E0,1.900354505E0,-2.986239791E-1
2.207246359E1,1.427164435E0,2.656184912E0,5.550142527E-1
2.208913026E1,5.614402890E-1,7.745721340E-1,3.665925026E0
2.210579692E1,-5.219551325E-1,-5.204889297E0,1.334814358E1
2.212246359E1,6.475549340E-1,-5.030907154E0,1.074201679E1
2.213913026E1,1.443828106E0,-4.888959885E0,1.382480049E1
2.215579692E1,-2.808015347E-1,-1.098094845E1,1.692548180E1
2.217246359E1,-1.000680551E-1,-1.681179619E1,1.583032703E1
2.218913026E1,2.156390429E0,-1.926020241E1,1.710117912E1
2.220579692E1,5.209169865E0,-2.024040794E1,1.850380898E1
2.222246359E1,7.229272842E0,-1.884319115E1,1.640893936E1
2.223913025E1,8.685292244E0,-1.555449581E1,1.386658382E1
2.225579692E1,8.549569130E0,-1.166176414E1,1.048554039E1
2.227246358E1,7.643632889E0,-2.628220558E0,4.368048668E0
2.228913025E1,7.643632889E0,-2.628220558E0,4.368048668E0
2.230579692E1,6.326515198E0,2.566047907E0,-2.079124749E-1
2.232246358E1,6.326515198E0,2.566047907E0,-2.079124749E-1
2.233913025E1,5.229951859E0,3.021501780E0,-2.688544989E0
2.235579692E1,5.201709270E0,2.609430790E0,-4.139182091E0
2.237246358E1,5.201709270E0,2.609430790E0,-4.139182091E0
2.238913025E1,4.945108891E0,1.999321222E0,-5.544080734E0
2.240579691E1,3.480230808E0,1.917085171E0,-4.389088631E0
2.242246358E1,1.091430426E0,1.796436548E0,-2.317673445E0
2.243913024E1,-7.300974727E-1,1.659947872E0,-7.749456167E-1
2.245579691E1,-1.906560302E0,1.140904188E0,-8.976053596E-1
2.247246358E1,-1.692394137E0,1.146841764E0,-1.248997569E0
2.248913024E1,-1.474148273E0,1.944877028E0,-2.118514061E0
2.250579691E1,-1.474148273E0,1.944877028E0,-2.118514061E0
2.252246358E1,-8.151012063E-1,2.970984221E0,-2.069021225E0
2.253913024E1,-2.472923100E-1,2.249323845E0,-1.173771739E0
2.255579691E1,-4.251048863E-1,1.341921210E0,-8.231360912E-1
2.257246357E1,-8.052657843E-1,8.202152252E-1,-3.060651422E-1
2.258913024E1,-8.290162683E-1,1.439202547E0,5.051670074E-1
2.260579691E1,-1.540936947E0,5.207924843E0,-1.173436522E0
2.262246357E1,-5.170412540E0,1.588233852E1,2.779965162E0
2.263913024E1,-1.416410637E1,4.107550812E1,1.391747570E1
2.265579690E1,-3.569658995E-1,2.349356461E1,6.569392681E0
2.267246357E1,-3.569658995E-1,2.349356461E1,6.569392681E0
2.268913024E1,-3.569658995E-1,2.349356461E1,6.569392681E0
2.270579690E1,-3.569658995E-1,2.349356461E1,6.569392681E0
2.270579690E1,-1.981497765E1,3.685705185E1,8.341015577E-1
2.273913023E1,-1.981497765E1,3.685705185E1,8.341015577E-1
2.275579690E1,-1.061891747E1,2.517844963E1,7.974990368E0
2.277246357E1,-8.290229797E0,1.858971214E1,6.421210289E0
2.278913023E1,-3.832206964E0,1.377225304E1,4.472071648E0
2.280579690E1,-4.749713242E-1,9.276085854E0,3.678125858E0
2.282246356E1,3.154264927E0,4.960192204E0,1.332133859E-1
2.283913023E1,6.497968674E0,2.163410187E0,-4.440545082E0
2.285579690E1,8.672698975E0,-1.016099192E-2,-4.903890133E0
2.287246356E1,7.107244968E0,-8.627457619E-1,-2.885147333E0
2.288913023E1,2.734216452E0,8.744582534E-1,-8.317264915E-1
2.290579689E1,1.347648352E-1,3.748601675E0,-2.506968498E0
2.292246356E1,1.158123255E0,4.509832859E0,-4.182852745E0
2.293913023E1,1.694539309E0,3.278303623E0,-3.461067677E0
2.295579689E1,9.468780756E-1,2.289910078E0,-2.151534796E0
2.297246356E1,1.141871452E0,2.202837944E0,-8.933436871E-1
2.298913022E1,1.666891098E0,2.982524157E0,-7.684525847E-1
2.300579689E1,1.433130860E0,4.798669815E0,-1.736313343E0
2.302246356E1,-1.297465861E-1,6.448964119E0,-2.156744957E0
2.303913022E1,-3.844513297E-1,7.210214615E0,-1.002825737E0
2.305579689E1,1.213745356E0,7.552518845E0,6.480720639E-1
2.307246355E1,1.213745356E0,7.552518845E0,6.480720639E-1
2.308913022E1,8.096232265E-2,5.709634781E0,5.957856178E0
2.310579688E1,8.096232265E-2,5.709634781E0,5.957856178E0
2.312246355E1,-3.962882757E-1,-5.314888000E0,8.624479294E0
2.313913022E1,2.226406574E0,-8.008709908E0,1.495516968E1
2.315579688E1,4.522081852E0,-7.491217613E0,1.693691826E1
2.317246355E1,6.387117386E0,-7.777688503E0,2.365041161E1
2.318913022E1,8.491304398E0,-1.338629818E1,2.574419975E1
2.320579688E1,5.846975803E0,-2.101596642E1,1.750143242E1
2.322246355E1,4.000806808E-1,-2.398287201E1,1.501874161E1
2.323913021E1,-4.076271951E-1,-2.136034012E1,1.180248547E1
2.325579688E1,6.529083848E-1,-1.555006218E1,7.957808971E0
2.327246354E1,1.208593011E0,-1.159301186E1,6.310665607E0
2.328913021E1,2.223916531E0,-9.632581711E0,4.792559624E0
2.330579688E1,2.037274122E0,-6.472628593E0,2.404439211E0
2.332246354E1,-4.525807500E-1,-1.079823256E0,-3.248931468E-1
2.333913021E1,-2.703254938E0,5.280172348E0,-3.220048189E0
2.335579688E1,-2.440055370E0,9.668571472E0,-5.557229519E0
2.337246354E1,-3.072622716E-1,9.725074768E0,-6.107005596E0
2.338913021E1,3.338283300E-1,6.297746658E0,-4.834142208E0
2.340579687E1,-4.137180280E-3,3.674132347E0,-3.001399994E0
2.342246354E1,-6.160855889E-1,3.135494471E0,-2.387823582E0
2.343913020E1,-6.674459577E-1,4.106208801E0,-2.154331207E0
2.345579687E1,-7.381036282E-1,4.736985207E0,-1.918617487E0
2.347246354E1,-7.381036282E-1,4.736985207E0,-1.918617487E0
2.348913020E1,6.895492673E-1,5.237441063E0,-2.384854794E0
2.350579687E1,1.096304893E0,5.097992897E0,-1.732626319E0
2.352246354E1,1.096304893E0,5.097992897E0,-1.732626319E0
2.353913020E1,1.639702559E0,4.812584877E0,2.047521323E-1
2.355579687E1,2.551577330E0,4.401098251E0,1.357780576E0
2.357246353E1,3.081931353E0,3.341549158E0,3.393704414E0
2.358913020E1,2.639013767E0,2.141785860E0,3.818876266E0
2.360579687E1,2.639013767E0,2.141785860E0,3.818876266E0
2.362246353E1,8.625523567E0,1.537029552E1,6.496848106E0
2.363913020E1,4.878932953E0,3.915303040E1,5.412610054E0
2.365579686E1,3.772984028E0,2.849145889E1,6.409373879E-1
2.367246353E1,-1.130759430E1,3.395156097E1,-1.727885723E0
2.368913020E1,-3.594026184E1,3.996324921E1,1.157759309E0
2.370579686E1,-3.346567154E1,4.301434326E1,-1.765120387E0
2.372246353E1,-1.782000542E1,3.686617661E1,4.984823465E-1
2.373913019E1,-1.224814224E1,3.544143295E1,4.501233578E0
2.375579686E1,-8.115836143E0,3.150492668E1,3.934554338E0
2.377246353E1,-4.189163685E0,2.425421143E1,6.174780369E0
2.378913019E1,-2.175409794E0,1.866720772E1,5.037735462E0
2.380579686E1,-6.871550083E-1,1.404073811E1,4.572925091E0
2.382246352E1,1.436961532E0,9.067349434E0,3.851801157E0
2.383913019E1,3.276589632E0,4.861819267E0,3.157090187E0
2.385579686E1,3.339997530E0,2.049982309E0,2.131577015E0
2.387246352E1,3.339997530E0,2.049982309E0,2.131577015E0
2.388913019E1,3.339997530E0,2.049982309E0,2.131577015E0
2.390579685E1,3.601406097E0,3.067393780E0,-1.896246076E0
2.392246352E1,3.601406097E0,3.067393780E0,-1.896246076E0
2.393913018E1,1.242408633E0,6.725054264E0,-3.758264542E0
2.395579685E1,2.113409787E-1,7.379638195E0,-4.304956436E0
2.397246352E1,2.113409787E-1,7.379638195E0,-4.304956436E0
2.398913018E1,-1.741973281E0,4.493207932E0,-2.515310049E0
2.400579685E1,-1.741973281E0,4.493207932E0,-2.515310049E0
2.402246352E1,-6.204621792E-1,2.648111582E0,-3.219923496E0
2.403913018E1,-6.535212696E-2,3.534981489E0,-3.561834812E0
2.405579685E1,-6.535212696E-2,3.534981489E0,-3.561834812E0
2.407246351E1,1.581427693E0,5.163440704E0,-2.924038649E0
2.408913018E1,2.338704109E0,4.804281712E0,-2.298807144E0
2.410579684E1,1.886898994E0,3.514611483E0,-2.428620815E0
2.412246351E1,5.851428956E-2,-1.624839306E0,2.819977045E0
2.413913018E1,-2.415749580E-1,-9.174035072E0,1.004475880E1
2.415579684E1,-1.670386642E-1,-1.363024807E1,1.843928909E1
2.417246351E1,6.506558895E0,-1.441648483E1,1.776016998E1
2.418913018E1,9.720841408E0,-1.559729481E1,2.504965019E1
2.420579684E1,7.674307346E0,-1.571021461E1,2.610804176E1
2.422246351E1,5.772583008E0,-1.896724892E1,2.040605927E1
2.423913017E1,1.637595654E0,-2.104609489E1,1.587316513E1
2.425579684E1,-9.500958323E-1,-1.882249641E1,1.133743572E1
2.427246350E1,2.862507701E-1,-1.180168056E1,4.982936859E0
2.428913017E1,2.862507701E-1,-1.180168056E1,4.982936859E0
2.430579684E1,1.590650201E0,-3.909616470E0,-1.100221872E0
2.432246350E1,1.590650201E0,-3.909616470E0,-1.100221872E0
2.433913017E1,-6.202514768E-1,5.273095131E0,-6.091940880E0
2.435579684E1,5.096010566E-1,7.396378517E0,-7.227788448E0
2.437246350E1,5.096010566E-1,7.396378517E0,-7.227788448E0
2.438913017E1,2.618864059E0,4.797003269E0,-3.207694054E0
2.440579683E1,1.894330740E0,4.722246647E0,-2.207664490E0
2.442246350E1,7.654550076E-1,5.726356030E0,-2.334365606E0
2.443913016E1,-3.138702810E-1,6.265721798E0,-2.246805191E0
2.445579683E1,-1.520873547E0,5.012902737E0,-1.515079618E0
2.447246350E1,-1.703282952E0,3.370087862E0,-6.093913317E-1
2.448913016E1,-1.699423432E0,2.632865191E0,-1.006407499E0
2.450579683E1,-1.122803926E0,2.620223761E0,-2.183904648E0
2.452246350E1,-2.718185186E-1,2.807239771E0,-2.806234121E0
2.453913016E1,1.620682925E-1,3.079297543E0,-2.773452997E0
2.455579683E1,5.030313134E-1,3.201536179E0,-1.836055756E0
2.457246349E1,6.577543020E-1,3.070467949E0,-3.959051892E-2
2.458913016E1,7.398370504E-1,3.410147667E0,1.879639864E0
2.460579683E1,3.585460782E-1,5.473920822E0,5.595948219E0
2.462246349E1,-9.966104031E-1,1.597738838E1,9.139050484E0
2.463913016E1,-3.508070469E0,3.496377945E1,1.833942223E1
2.465579682E1,7.879308224E0,2.363166237E1,1.627182770E1
2.467246349E1,3.665704727E0,3.176984978E1,1.147967052E1
2.468913016E1,-1.526938534E1,3.764637756E1,6.930083752E0
2.470579682E1,-1.526938534E1,3.764637756E1,6.930083752E0
2.472246349E1,-2.667918396E1,3.951219177E1,-6.443735123E0
2.473913015E1,-2.667918396E1,3.951219177E1,-6.443735123E0
2.475579682E1,-8.586669922E0,2.715092850E1,6.294567108E0
2.477246349E1,-6.007904530E0,2.268591499E1,7.398073673E0
2.478913015E1,-6.007904530E0,2.268591499E1,7.398073673E0
2.480579682E1,-8.283076286E-1,1.136150169E1,4.258518696E0
2.482246348E1,8.051317334E-1,7.462544918E0,2.257761002E0
2.483913015E1,2.222001314E0,2.402830362E0,1.095414281E0
2.485579682E1,3.431388855E0,-1.035588026E0,5.218880773E-1
2.487246348E1,3.241423607E0,-1.696061969E0,-8.315157890E-1
2.488913015E1,2.386348724E0,1.491587609E-1,-1.888709068E0
2.490579681E1,1.808618307E0,2.848908424E0,-1.406411529E0
2.492246348E1,9.921571612E-1,5.019587517E0,-1.110708475E0
2.493913014E1,2.199888378E-1,5.630626202E0,-3.049264908E0
2.495579681E1,1.795172393E-1,4.964635849E0,-5.011303902E0
2.497246348E1,6.991068833E-3,4.298722267E0,-5.565178394E0
2.498913014E1,-1.354351938E-1,2.950298071E0,-5.612784863E0
2.500579681E1,1.296029240E-1,9.683588147E-1,-5.225096226E0
2.502246348E1,2.390466779E-1,-2.169146687E-1,-4.933453560E0
2.503913014E1,5.838404298E-1,3.158143759E-1,-4.518308640E0
2.505579681E1,2.319962502E0,1.243481278E0,-2.738277197E0
2.507246347E1,2.319962502E0,1.243481278E0,-2.738277197E0
2.508913014E1,1.074688148E1,4.641561985E0,2.382776499E0
2.510579680E1,1.074688148E1,4.641561985E0,2.382776499E0
2.512246347E1,1.127985096E1,-3.147254705E0,1.198400402E1
2.513913014E1,7.913411140E0,-9.794526100E0,1.680109024E1
2.515579680E1,7.913411140E0,-9.794526100E0,1.680109024E1
2.517246347E1,1.853242302E1,-1.041962337E1,2.433843994E1
2.518913014E1,1.231449986E1,-9.069053650E0,2.334766960E1
2.520579680E1,5.230009079E0,-1.073047638E1,1.627612877E1
2.522246347E1,5.094478130E-1,-1.235180187E1,1.371863174E1
2.523913013E1,-2.081902027E-1,-1.218990517E1,1.161863995E1
2.525579680E1,8.101212382E-1,-9.675543785E0,8.999057770E0
2.527246346E1,1.646023154E0,-6.698890209E0,5.189374447E0
2.528913013E1,2.209158659E0,-3.795298100E0,8.877412677E-1
2.530579680E1,2.124901772E0,-5.000817180E-1,-3.164253712E0
2.532246346E1,1.297082782E0,1.997137666E0,-6.037372112E0
2.533913013E1,4.383017421E-1,3.693161488E0,-8.260828972E0
2.535579680E1,1.269070506E0,3.900748253E0,-6.857711792E0
2.537246346E1,1.940902710E0,3.180505276E0,-3.844331264E0
2.538913013E1,1.782080889E0,2.985579014E0,-2.299419880E0
2.540579679E1,7.633768320E-1,3.833844662E0,-1.700438738E0
2.542246346E1,-6.257485151E-1,4.684485435E0,-1.888029218E0
2.543913013E1,-8.473941684E-1,4.541647434E0,-1.710829496E0
2.545579679E1,-1.619533896E-1,3.521497250E0,-1.419828653E0
2.547246346E1,-1.619533896E-1,3.521497250E0,-1.419828653E0
2.548913012E1,-1.619533896E-1,3.521497250E0,-1.419828653E0
2.550579679E1,-1.619533896E-1,3.521497250E0,-1.419828653E0
2.552246346E1,-1.619533896E-1,3.521497250E0,-1.419828653E0
2.553913012E1,-1.619533896E-1,3.521497250E0,-1.419828653E0
2.555579679E1,3.352533579E0,-1.830309749E0,8.023927808E-1
2.557246345E1,1.808359742E0,8.493670076E-2,1.747671485E0
2.558913012E1,1.808359742E0,8.493670076E-2,1.747671485E0
2.560579679E1,-2.576534510E0,2.265037346E1,3.515492439E0
2.562246345E1,-2.576534510E0,2.265037346E1,3.515492439E0
2.563913012E1,-8.500689507E0,2.918701363E1,1.006455421E0
2.565579678E1,-1.843539047E1,3.666368484E1,6.525425434E0
2.567246345E1,-1.843539047E1,3.666368484E1,6.525425434E0
2.568913012E1,-1.491569424E1,4.443480301E1,3.522828221E-1
2.570579678E1,-2.342829895E1,4.249903488E1,3.717812300E-1
2.572246345E1,-2.342829895E1,4.249903488E1,3.717812300E-1
2.573913011E1,-1.237684441E1,3.015156937E1,9.359317422E-1
2.575579678E1,-1.237684441E1,3.015156937E1,9.359317422E-1
2.577246345E1,-5.941872597E0,1.873150635E1,4.650372982E0
2.578913011E1,-2.517991543E0,1.434854698E1,2.891515732E0
2.580579678E1,7.905845046E-1,9.894938469E0,2.616374016E0
2.582246344E1,3.750382900E0,4.791668892E0,2.546367645E0
2.583913011E1,4.451606274E0,1.198824763E0,2.013877869E0
2.585579678E1,3.887771845E0,-6.154055595E-1,9.957293272E-1
2.587246344E1,3.633411884E0,9.748997688E-1,-7.095456123E-1
2.588913011E1,3.633411884E0,9.748997688E-1,-7.095456123E-1
2.590579677E1,2.660906315E0,6.003738403E0,-1.748935699E0
2.592246344E1,1.322164416E0,7.499137878E0,-3.870275021E0
2.593913010E1,1.322164416E0,7.499137878E0,-3.870275021E0
2.595579677E1,2.504430711E-1,8.622008324E0,-7.789726734E0
2.597246344E1,-8.346761465E-1,8.260350227E0,-7.635348797E0
2.598913010E1,-1.339019537E0,5.069233894E0,-2.358307838E0
2.600579677E1,-1.859528542E0,1.560119271E0,1.735030115E-1
2.602246344E1,-2.832446098E0,-1.061014384E-1,-1.820867062E0
2.603913010E1,-1.637825489E0,7.548822165E-1,-3.772131920E0
2.605579677E1,9.727258086E-1,2.624878168E0,-3.013399601E0
2.607246343E1,4.284586906E0,5.572494984E0,-3.461057901E0
2.608913010E1,4.329483032E0,8.400008678E-1,4.460464954E0
2.610579676E1,1.120553493E0,-7.228870392E0,1.192482948E1
2.612246343E1,1.044647694E0,-1.187990475E1,1.249323177E1
2.613913010E1,5.479053974E0,-1.355415058E1,1.298375607E1
2.615579676E1,8.595222473E0,-1.127627850E1,1.563081360E1
2.617246343E1,8.663064003E0,-1.111199760E1,1.913131905E1
2.618913010E1,5.743373871E0,-1.400966167E1,1.718367386E1
2.620579676E1,4.270154476E0,-1.575012207E1,1.485309124E1
2.622246343E1,3.350848198E0,-1.637208748E1,1.062000847E1
2.623913009E1,3.350053310E0,-1.727198219E1,9.596889496E0
2.625579676E1,3.642739534E0,-1.431678963E1,6.600162983E0
2.627246342E1,3.642739534E0,-1.431678963E1,6.600162983E0
2.628913009E1,6.131578922E0,-5.011198044E0,8.516941667E-1
2.630579676E1,6.131578922E0,-5.011198044E0,8.516941667E-1
2.632246342E1,1.774620652E0,4.499299049E0,-2.523067236E0
2.633913009E1,4.047637284E-1,8.248579979E0,-3.316620588E0
2.635579676E1,-4.507515430E-1,7.855720520E0,-4.098241329E0
2.637246342E1,-2.954061925E-1,5.156028271E0,-4.947416306E0
2.638913009E1,5.679525137E-1,3.275823593E0,-3.376063824E0
2.640579675E1,6.636727452E-1,2.305099010E0,-1.627530336E0
2.642246342E1,-4.381676316E-1,2.238252878E0,-1.665674806E0
2.643913009E1,-1.673575640E0,2.904980659E0,-2.086814880E0
2.645579675E1,-1.971404791E0,4.084632397E0,-2.625021935E0
2.647246342E1,-1.242667198E0,4.866186142E0,-2.730606318E0
2.648913008E1,2.317874581E-1,4.511892319E0,-2.652689219E0
2.650579675E1,9.324936271E-1,3.602699041E0,-1.792538762E0
2.652246342E1,7.942620516E-1,2.918215752E0,-1.136996865E0
2.653913008E1,2.640708685E-1,2.747566700E0,9.319190681E-2
2.655579675E1,-1.657457948E-1,2.535124540E0,6.219561100E-1
2.657246341E1,-1.390265077E-1,2.549767256E0,8.735963106E-1
2.658913008E1,7.711245120E-2,3.574619770E0,3.712257743E-1
2.660579675E1,1.020408794E-1,9.165368080E0,-5.346348286E-1
2.662246341E1,-2.160747766E0,1.793471718E1,3.313910484E0
2.663913008E1,-4.494194508E0,3.182921600E1,9.759915352E0
2.665579674E1,-2.929392099E0,3.179105186E1,9.954228401E0
2.667246341E1,-2.929392099E0,3.179105186E1,9.954228401E0
2.668913008E1,-1.972077179E1,3.723188782E1,9.933351278E-1
2.670579674E1,-1.742782402E1,3.199893761E1,1.843506575E0
2.672246341E1,-1.742782402E1,3.199893761E1,1.843506575E0
2.673913007E1,-1.009978676E1,2.954199791E1,5.695556641E0
2.675579674E1,-1.009978676E1,2.954199791E1,5.695556641E0
2.677246341E1,-1.009978676E1,2.954199791E1,5.695556641E0
2.678913007E1,4.663196087E0,1.845090675E1,5.141117096E0
2.680579674E1,7.462841988E0,1.406927776E1,4.843240261E0
2.682246340E1,7.168354988E0,9.323806763E0,4.591523647E0
2.683913007E1,5.352132320E0,4.289346218E0,4.067968845E0
2.685579674E1,3.737751007E0,8.484668136E-1,2.245033503E0
2.687246340E1,2.853218079E0,-2.540535331E-1,-1.617905796E-1
2.688913007E1,2.183119297E0,6.367427111E-1,-2.415328026E0
2.690579673E1,2.183119297E0,6.367427111E-1,-2.415328026E0
2.692246340E1,1.919670939E0,5.587874889E0,-5.404594421E0
2.693913006E1,7.865909934E-1,7.622046471E0,-6.053337097E0
2.695579673E1,-1.686226726E0,8.065040588E0,-6.443208694E0
2.697246340E1,-4.281780720E0,6.215472221E0,-7.203463554E0
2.698913006E1,-4.281780720E0,6.215472221E0,-7.203463554E0
2.700579673E1,-4.672811508E0,1.498837233E0,-4.380651951E0
2.702246340E1,-2.372931719E0,8.822058439E-1,-3.798583031E0
2.703913006E1,1.302828789E-1,4.711214304E-1,-3.256631374E0
2.705579673E1,1.641886115E0,6.688441634E-1,-2.820896149E0
2.707246339E1,4.099083900E0,3.421860218E0,-2.821423113E-1
2.708913006E1,4.099083900E0,3.421860218E0,-2.821423113E-1
2.710579672E1,5.655899525E0,-5.428804159E-1,3.566096544E0
2.712246339E1,5.655899525E0,-5.428804159E-1,3.566096544E0
2.713913006E1,5.655899525E0,-5.428804159E-1,3.566096544E0
2.715579672E1,7.613599777E0,-1.149035835E1,1.204868507E1
2.717246339E1,7.613599777E0,-1.149035835E1,1.204868507E1
2.718913006E1,7.764118195E0,-6.965259075E0,2.115839386E1
2.720579672E1,9.671463966E0,-1.268713379E1,2.176141548E1
2.722246339E1,9.671463966E0,-1.268713379E1,2.176141548E1
2.723913005E1,-1.685316920E0,-2.128234482E1,1.157234478E1
2.725579672E1,-1.897644281E0,-1.988095284E1,9.787784576E0
2.727246339E1,9.666732550E-1,-1.646270370E1,1.092872620E1
2.728913005E1,2.605370283E0,-1.160336399E1,7.505295277E0
2.730579672E1,2.605370283E0,-1.160336399E1,7.505295277E0
2.732246338E1,3.216399431E0,-5.734888554E0,1.909557819E0
2.733913005E1,2.892071009E0,-1.875971913E0,-9.965912700E-1
2.735579672E1,7.596035600E-1,2.926279545E0,-2.972075701E0
2.737246338E1,-6.890129447E-1,6.385364532E0,-3.189852238E0
2.738913005E1,-3.513059914E-1,6.864377499E0,-3.702508450E0
2.740579671E1,1.093250036E0,5.301212788E0,-3.366266727E0
2.742246338E1,1.614266634E0,4.023034573E0,-2.191288233E0
2.743913005E1,1.461420774E0,3.314216852E0,-1.913886428E0
2.745579671E1,1.830510795E-1,3.215556622E0,-1.957087517E0
2.747246338E1,-1.748025775E0,3.526984692E0,-3.141872644E0
2.748913004E1,-1.748025775E0,3.526984692E0,-3.141872644E0
2.750579671E1,-1.748025775E0,3.526984692E0,-3.141872644E0
2.752246338E1,1.180647969E0,4.637932777E0,-3.635939837E0
2.753913004E1,1.180647969E0,4.637932777E0,-3.635939837E0
2.755579671E1,1.349563599E-1,1.625452280E0,-8.674001694E-1
2.757246337E1,-6.566816568E-1,1.747480035E0,7.738538980E-1
2.758913004E1,-8.754159212E-1,2.530987263E0,2.584176779E0
2.760579671E1,-1.659162641E0,2.665665865E0,2.263066292E0
2.762246337E1,-1.319176435E0,3.694904566E0,1.586560845E0
2.763913004E1,-1.062853098E0,1.033871841E1,2.837119341E0
2.765579670E1,-3.459688425E0,2.776526070E1,8.624422073E0
2.767246337E1,7.047064304E0,2.658249664E1,4.324550629E0
2.768913004E1,6.955194473E0,2.647828102E1,4.730291367E0
2.770579670E1,-7.034700871E0,3.552468872E1,6.003297806E0
2.772246337E1,-1.928986359E1,4.310555267E1,6.391953468E0
2.773913003E1,-2.007084274E1,4.593640900E1,5.501971245E-1
2.775579670E1,-1.557751846E1,4.101250458E1,3.952127934E0
2.777246336E1,-1.233895874E1,3.626276779E1,4.222126961E0
2.778913003E1,-8.899419785E0,3.159516716E1,4.481945992E0
2.780579670E1,-5.780072212E0,2.624031639E1,5.685894012E0
2.782246336E1,-2.225582838E0,2.185104561E1,5.505763531E0
2.783913003E1,9.322159290E-1,1.704116249E1,5.261056900E0
2.785579670E1,2.935473204E0,1.264224720E1,4.427386761E0
2.787246336E1,2.935473204E0,1.264224720E1,4.427386761E0
2.788913003E1,3.727149725E0,9.645472169E-1,9.858939648E-1
2.790579669E1,3.727149725E0,9.645472169E-1,9.858939648E-1
2.792246336E1,3.727149725E0,9.645472169E-1,9.858939648E-1
2.793913002E1,5.645508289E0,4.734696865E0,-3.831230164E0
2.795579669E1,5.645508289E0,4.734696865E0,-3.831230164E0
2.797246336E1,2.021874666E0,6.527848721E0,-3.350311756E0
2.798913002E1,-1.115190387E0,5.014502525E0,-4.143520355E0
2.800579669E1,-3.809356928E0,3.579829693E0,-4.662018299E0
2.802246336E1,-4.798602581E0,3.050212860E0,-4.008889675E0
2.803913002E1,-3.769900322E0,3.400896549E0,-2.896533966E0
2.805579669E1,-9.999909997E-1,3.644760370E0,-2.637816429E0
2.807246335E1,1.411688328E0,4.359697819E0,-3.339308023E0
2.808913002E1,1.247350335E0,5.125229359E0,-3.528746843E0
2.810579668E1,-4.216668010E-2,5.567553043E0,-3.750976562E0
2.812246335E1,-2.943335772E-1,5.396990299E0,-3.361564398E0
2.813913002E1,1.128626689E-1,3.787914276E0,-1.056226015E0
2.815579668E1,1.355520368E0,7.393486500E-1,1.777876735E0
2.817246335E1,1.098919392E0,-3.038098335E0,3.084191322E0
2.818913002E1,-9.119322300E-1,-8.105684280E0,1.109245110E1
2.820579668E1,4.914501190E0,-9.540530205E0,1.381712055E1
2.822246335E1,8.369027138E0,-9.290115356E0,1.626163864E1
2.823913001E1,6.695365906E0,-1.476793385E1,1.952987671E1
2.825579668E1,5.829086304E0,-2.143562317E1,1.538595390E1
2.827246335E1,5.829086304E0,-2.143562317E1,1.538595390E1
2.828913001E1,5.829086304E0,-2.143562317E1,1.538595390E1
2.830579668E1,9.282894731E-1,-1.336852360E1,8.145371437E0
2.832246334E1,9.282894731E-1,-1.336852360E1,8.145371437E0
2.833913001E1,4.410080910E0,-6.477684975E0,3.984612465E0
2.835579668E1,3.690690756E0,-2.646464348E0,1.490735292E0
2.837246334E1,1.894282818E0,2.860649586E0,-8.567793965E-1
2.838913001E1,7.150618434E-1,8.175461769E0,-2.665560484E0
2.840579667E1,1.320153236E0,1.032852840E1,-4.109618664E0
2.842246334E1,3.073178291E0,8.287280083E0,-4.683211803E0
2.843913001E1,4.466296673E0,5.223592758E0,-4.956639290E0
2.845579667E1,4.515493393E0,3.935492992E0,-4.495716572E0
2.847246334E1,3.306191444E0,4.143127918E0,-3.299458981E0
2.848913000E1,1.678182125E0,4.229146481E0,-1.830166101E0
2.850579667E1,3.574160039E-1,4.316889286E0,-9.347537756E-1
2.852246334E1,-1.792012006E-1,3.893029451E0,-3.736965656E-1
2.853913000E1,1.613308936E-1,3.043758392E0,-9.030641317E-1
2.855579667E1,9.257133007E-1,2.212136984E0,-1.670530319E0
2.857246333E1,1.023904324E0,1.630642891E0,-2.122287273E0
2.858913000E1,3.958668709E-1,1.601462364E0,-2.088711262E0
2.860579667E1,-2.141948491E-1,1.814306855E0,-7.493947148E-1
2.862246333E1,-6.669000983E-1,1.523373008E0,1.634291649E0
2.863913000E1,-1.793410301E0,1.110258460E0,2.989869356E0
2.865579666E1,-5.041614056E0,3.441645861E0,2.758934259E0
2.867246333E1,-5.041614056E0,3.441645861E0,2.758934259E0
2.868913000E1,-5.041614056E0,3.441645861E0,2.758934259E0
2.870579666E1,5.139968395E-1,2.875364494E1,1.259622097E1
2.872246333E1,5.139968395E-1,2.875364494E1,1.259622097E1
2.873912999E1,5.139968395E-1,2.875364494E1,1.259622097E1
2.875579666E1,5.139968395E-1,2.875364494E1,1.259622097E1
2.877246332E1,-2.185801697E1,3.589487839E1,-9.296206236E-1
2.878912999E1,-1.851710892E1,3.641708374E1,6.479571462E-1
2.880579666E1,-1.851710892E1,3.641708374E1,6.479571462E-1
2.882246332E1,-7.750825882E0,2.549801826E1,2.215843201E0
2.883912999E1,-7.750825882E0,2.549801826E1,2.215843201E0
2.885579666E1,-7.671405077E-1,1.675232506E1,4.844332218E0
2.887246332E1,2.069059610E0,1.232803249E1,5.197687626E0
2.888912999E1,3.491024017E0,7.128304482E0,5.486887932E0
2.890579665E1,3.613980532E0,2.613261461E0,4.111428738E0
2.892246332E1,3.461316586E0,1.390552372E-1,1.949205756E0
2.893912998E1,3.952511072E0,-9.176017642E-1,2.169242501E-1
2.895579665E1,4.875274181E0,-4.135456979E-1,-9.939480424E-1
2.897246332E1,4.797194958E0,1.778748155E0,-1.728862643E0
2.898912998E1,3.360999584E0,4.813935280E0,-2.747145176E0
2.900579665E1,1.652602553E0,7.245438576E0,-4.083713055E0
2.902246332E1,-3.593505323E-1,8.876857758E0,-5.153682232E0
2.903912998E1,-2.311285734E0,8.793068886E0,-5.642233372E0
2.905579665E1,-3.142418385E0,6.380633831E0,-4.595076084E0
2.907246331E1,-3.142418385E0,6.380633831E0,-4.595076084E0
2.908912998E1,-1.364350200E0,2.525739193E0,-4.061810970E0
2.910579664E1,-1.364350200E0,2.525739193E0,-4.061810970E0
2.912246331E1,1.429175615E0,2.649097919E0,-3.273812294E0
2.913912998E1,2.576907873E0,4.990627289E0,-2.885386467E0
2.915579664E1,1.336472154E0,4.269598961E0,-9.712797403E-1
2.917246331E1,-2.481254935E-1,-2.962872684E-1,3.704682350E0
2.918912998E1,-1.349611402E0,-6.347612858E0,7.238763809E0
2.920579664E1,-8.961113691E-1,-6.763543129E0,7.337203503E0
2.922246331E1,4.660227776E0,-9.385375977E0,1.329117107E1
2.923912997E1,6.047274590E0,-1.660432434E1,1.503299141E1
2.925579664E1,2.975399017E0,-2.110539627E1,1.252952862E1
2.927246331E1,5.253836140E-2,-2.439894485E1,1.201990700E1
2.928912997E1,1.916635156E0,-2.547405624E1,1.500343704E1
2.930579664E1,3.193817139E0,-1.950704575E1,1.336177158E1
2.932246330E1,3.197466135E0,-1.596951675E1,1.295518875E1
2.933912997E1,2.499508381E0,-1.322960186E1,9.551725388E0
2.935579664E1,3.180946112E0,-8.894967079E0,7.017481804E0
2.937246330E1,4.698362350E0,-5.754578590E0,5.879622936E0
2.938912997E1,5.089642048E0,-2.712391138E0,3.673576832E0
2.940579663E1,4.505111694E0,1.577922583E0,1.178426027E0
2.942246330E1,3.962834835E0,6.593449593E0,-7.268987894E-1
2.943912997E1,4.544117928E0,9.929645538E0,-2.468986988E0
2.945579663E1,5.389156342E0,9.552778244E0,-4.317741871E0
2.947246330E1,5.389156342E0,9.552778244E0,-4.317741871E0
2.948912996E1,5.859559536E0,1.586493850E-1,-4.466497898E0
2.950579663E1,4.713905334E0,-6.061831713E-1,-2.774017811E0
2.952246330E1,4.713905334E0,-6.061831713E-1,-2.774017811E0
2.953912996E1,5.959360003E-1,-1.077476978E0,-3.573872805E0
2.955579663E1,-1.639070392E0,-1.461899579E-1,-4.929574966E0
2.957246329E1,-2.467780352E0,1.163811922E0,-5.026473045E0
2.958912996E1,-2.524053812E0,1.802690148E0,-4.023398399E0
2.960579663E1,-2.804740191E0,2.046640158E0,-3.102416277E0
2.962246329E1,-4.027028084E0,2.843200684E0,-2.435946941E0
2.963912996E1,-6.124358177E0,3.915448666E0,-3.993720114E-1
2.965579662E1,-8.159008026E0,4.577627659E0,8.321000338E-1
2.967246329E1,-8.139088631E0,3.740193129E0,1.808608651E0
2.968912996E1,-6.518099308E0,4.238167763E0,1.628957391E0
2.970579662E1,-7.755001545E0,1.473451042E1,7.248665810E0
2.972246329E1,-1.357225060E0,3.449551392E1,6.682389259E0
2.973912995E1,9.912071228E0,2.580267525E1,1.095921898E1
2.975579662E1,-5.078130245E0,3.332877350E1,9.610890388E0
2.977246328E1,-1.126843452E1,3.801442719E1,3.515368223E0
2.978912995E1,-1.710034561E1,4.155675507E1,9.903088212E-1
2.980579662E1,-1.679423332E1,3.800571060E1,4.191155434E0
2.982246328E1,-1.474532318E1,3.893903732E1,2.452486038E0
2.983912995E1,-1.208622742E1,3.389953995E1,3.741514683E0
2.985579662E1,-9.173403740E0,2.802096176E1,4.160768032E0
2.987246328E1,-8.149001002E-1,1.938551521E1,4.884899616E0
2.988912995E1,-8.149001002E-1,1.938551521E1,4.884899616E0
2.990579661E1,3.021980524E0,8.336437225E0,4.794446468E0
2.992246328E1,3.145521164E0,3.570281506E0,2.878366709E0
2.993912994E1,3.124279976E0,4.318565428E-1,6.237757802E-1
2.995579661E1,3.124279976E0,4.318565428E-1,6.237757802E-1
2.997246328E1,3.124279976E0,4.318565428E-1,6.237757802E-1
2.998912994E1,3.124279976E0,4.318565428E-1,6.237757802E-1
3.000579661E1,2.636054516E0,3.809711218E0,-3.343502760E0
3.002246328E1,1.288942337E0,4.549778461E0,-3.693573236E0
3.003912994E1,-3.687453568E-1,4.602507591E0,-4.690834999E0
3.005579661E1,-1.731371760E0,3.919643402E0,-4.370423794E0
3.007246327E1,-2.698935747E0,2.651003599E0,-3.571746826E0
3.008912994E1,-2.647508383E0,1.259723663E0,-2.522588491E0
3.010579661E1,-1.968464732E0,6.883138418E-1,-2.056925774E0
3.012246327E1,-1.968464732E0,6.883138418E-1,-2.056925774E0
3.013912994E1,2.162634611E0,3.734408617E0,-2.365567207E0
3.015579660E1,2.162634611E0,3.734408617E0,-2.365567207E0
3.017246327E1,5.789036274E0,4.165518284E0,-9.283182025E-1
3.018912994E1,4.137104034E0,3.344604015E0,-5.600325465E-1
3.020579660E1,3.130552769E0,2.164492369E0,6.058575511E-1
3.022246327E1,3.100807190E0,-1.715033650E0,3.562112570E0
3.023912993E1,6.028695703E-1,-7.383018970E0,1.199535275E1
3.025579660E1,4.043548107E0,-1.340382290E1,1.740666008E1
3.027246327E1,4.043548107E0,-1.340382290E1,1.740666008E1
3.028912993E1,4.043548107E0,-1.340382290E1,1.740666008E1
3.030579660E1,4.043548107E0,-1.340382290E1,1.740666008E1
3.032246326E1,3.249410391E-1,-1.755050468E1,1.133529949E1
3.033912993E1,3.249410391E-1,-1.755050468E1,1.133529949E1
3.035579660E1,3.249410391E-1,-1.755050468E1,1.133529949E1
3.037246326E1,-2.404305220E0,-8.613772392E0,2.920916557E0
3.038912993E1,-2.404305220E0,-8.613772392E0,2.920916557E0
3.040579659E1,-9.185307026E-1,-1.103200316E0,5.293101072E-1
3.042246326E1,-1.043297410E0,2.911282301E0,-1.042770624E0
3.043912993E1,-1.324300051E0,6.980495930E0,-2.905622244E0
3.045579659E1,-5.791478157E-1,9.165243149E0,-4.364706516E0
3.047246326E1,1.537422299E0,8.066985130E0,-4.047503471E0
3.048912992E1,3.289527893E0,5.905835152E0,-3.111504555E0
3.050579659E1,3.549432755E0,5.195408344E0,-2.471189737E0
3.052246326E1,3.203460932E0,5.078474998E0,-1.523181558E0
3.053912992E1,2.516171932E0,4.002444267E0,-1.111149073E0
3.055579659E1,1.870168447E0,2.274175644E0,-2.538342237E0
3.057246325E1,9.208099842E-1,1.098785400E0,-3.799396992E0
3.058912992E1,5.757576227E-1,7.699657083E-1,-4.316812515E0
3.060579658E1,-1.379443258E-1,4.553771615E-1,-3.980369806E0
3.062246325E1,-1.135339975E0,1.108611152E-1,-2.909328699E0
3.063912992E1,-1.945442080E0,2.279854566E-1,-1.776545525E0
3.065579658E1,-2.325870991E0,7.377110124E-1,-1.186690927E0
3.067246325E1,-2.397429228E0,2.690077066E0,-2.048727989E0
3.068912992E1,-2.397429228E0,2.690077066E0,-2.048727989E0
3.070579658E1,-1.086374760E1,2.374566460E1,8.498850822E0
3.072246325E1,-8.338210106E0,2.725867653E1,1.115630913E1
3.073912991E1,-8.338210106E0,2.725867653E1,1.115630913E1
3.075579658E1,-2.880511999E0,3.085691261E1,1.496936321E1
3.077246324E1,-9.496247292E0,3.536291504E1,9.125471115E0
3.078912991E1,-1.756589508E1,4.165265656E1,-2.117259502E0
3.080579658E1,-2.274532890E1,4.179819489E1,8.034940809E-3
3.082246324E1,-1.573283577E1,3.902837753E1,3.409955978E0
3.083912991E1,-1.136542892E1,3.424530029E1,7.850108624E0
3.085579658E1,-1.072384930E1,2.783289337E1,8.472667694E0
3.087246324E1,-8.147746086E0,2.240256500E1,7.774739265E0
3.088912991E1,-3.879171848E0,1.789762497E1,5.859530926E0
3.090579657E1,1.303882301E-1,1.353999615E1,3.743334532E0
3.092246324E1,2.817400932E0,8.299137115E0,3.047818899E0
3.093912990E1,4.270326614E0,4.039085388E0,1.897644281E0
3.095579657E1,4.995291233E0,1.631600618E0,-2.484223805E-2
3.097246324E1,5.182872295E0,1.107203364E0,-2.123292923E0
3.098912990E1,4.857040405E0,2.089333773E0,-3.380124331E0
3.100579657E1,4.401883125E0,4.012385368E0,-4.435248852E0
3.102246324E1,4.230707645E0,6.391963005E0,-5.664508820E0
3.103912990E1,3.289556742E0,7.827325344E0,-5.438199043E0
3.105579657E1,4.456471205E-1,7.246837139E0,-4.124979496E0
3.107246323E1,4.456471205E-1,7.246837139E0,-4.124979496E0
3.108912990E1,-4.352648735E0,2.769516945E0,-2.568317652E0
3.110579657E1,-4.352648735E0,2.769516945E0,-2.568317652E0
3.112246323E1,1.142331004E0,3.493398905E0,-3.044198751E0
3.113912990E1,2.603952885E0,4.566729069E0,-3.744512320E0
3.115579656E1,2.205557823E0,5.115374565E0,-3.234068632E0
3.117246323E1,2.026069164E0,5.546235561E0,-2.927744865E0
3.118912990E1,7.147074938E-1,4.388993263E0,-4.249803722E-1
3.120579656E1,-2.918148935E-1,2.342496634E0,1.933020949E0
3.122246323E1,-1.264626980E0,-1.738171220E0,5.217415333E0
3.123912989E1,-1.742624521E0,-9.182760239E0,1.374499702E1
3.125579656E1,4.774133682E0,-1.100428677E1,1.301201630E1
3.127246323E1,5.095349789E0,-1.028902435E1,1.476245594E1
3.128912989E1,-2.209465057E-1,-1.228997326E1,1.754405785E1
3.130579656E1,6.302879453E-1,-1.590314007E1,1.751154518E1
3.132246322E1,1.649346471E0,-2.028561211E1,1.802781296E1
3.133912989E1,1.473908782E0,-1.975226974E1,1.628111649E1
3.135579656E1,2.360615730E0,-1.886897278E1,1.498584461E1
3.137246322E1,3.136634111E0,-1.792700577E1,1.258470058E1
3.138912989E1,4.177632809E0,-1.377079678E1,9.744707108E0
3.140579655E1,5.076081276E0,-9.089702606E0,7.497490883E0
3.142246322E1,4.485527515E0,-5.598351955E0,6.145484924E0
3.143912989E1,4.081424236E0,-2.672139883E0,4.568663597E0
3.145579655E1,3.160030365E0,1.531723976E0,2.139199972E0
3.147246322E1,2.576812267E0,9.828867912E0,-2.054244041E0
3.148912988E1,2.576812267E0,9.828867912E0,-2.054244041E0
3.150579655E1,2.576812267E0,9.828867912E0,-2.054244041E0
3.152246322E1,3.826489687E0,3.997838199E-1,-5.185965538E0
3.153912988E1,1.840365410E0,-2.012221098E0,-3.838853598E0
3.155579655E1,-3.585748076E-1,-1.790738344E0,-2.325593472E0
3.157246321E1,-1.895690560E0,-6.050626189E-2,-2.390974283E0
3.158912988E1,-1.895690560E0,-6.050626189E-2,-2.390974283E0
3.160579654E1,-1.772245646E0,3.163238525E0,-4.768589020E0
3.162246321E1,-1.467549920E0,3.376063824E0,-5.168152332E0
3.163912988E1,-1.603310704E0,3.486790657E0,-4.880570889E0
3.165579654E1,-1.679599524E0,4.193884850E0,-3.854482651E0
3.167246321E1,-1.298298955E0,4.667209148E0,-2.878950834E0
3.168912988E1,1.369579136E-1,3.512255669E0,-2.184268475E0
3.170579654E1,1.963887095E0,2.187850237E0,-2.787454128E0
3.172246321E1,3.615675449E0,4.724449635E0,-4.673768997E0
3.173912987E1,5.122499943E0,8.575120926E0,1.012728095E0
3.175579654E1,3.375268936E0,1.172810268E1,1.134788418E1
3.177246320E1,3.605112314E0,3.205854416E1,1.777602768E1
3.178912987E1,1.331980586E0,3.276841354E1,6.597577095E0
3.180579654E1,-9.202353358E-1,2.646848488E1,5.218019009E0
3.182246320E1,-9.214545250E0,2.804215431E1,1.400828242E0
3.183912987E1,-1.802221870E1,3.671333313E1,-3.721843958E0
3.185579654E1,-2.492792892E1,4.000650787E1,-7.326822281E0
3.187246320E1,-2.492792892E1,4.000650787E1,-7.326822281E0
3.188912987E1,-4.933693409E0,3.293189240E1,4.786124229E0
3.190579653E1,-4.933693409E0,3.293189240E1,4.786124229E0
3.192246320E1,-4.933693409E0,3.293189240E1,4.786124229E0
3.193912986E1,-4.933693409E0,3.293189240E1,4.786124229E0
3.195579653E1,-4.933693409E0,3.293189240E1,4.786124229E0
3.197246320E1,-1.032283977E-1,6.371937752E0,2.738813400E0
3.198912986E1,7.640950680E-1,2.738871098E0,1.058917165E0
3.200579653E1,8.689324260E-1,-8.430750370E-1,5.167549253E-1
3.202246320E1,1.445762753E0,-2.202033520E0,3.031155169E-1
3.203912986E1,1.745401740E0,-7.512526512E-1,-3.390189726E-3
3.205579653E1,1.922160864E0,2.543695450E0,-1.502792537E-1
3.207246319E1,2.197915554E0,5.394921780E0,-4.992197752E-1
3.208912986E1,2.375488520E0,7.219964504E0,-1.172584176E0
3.210579652E1,2.189909220E0,8.159458160E0,-2.863733292E0
3.212246319E1,1.911961555E0,8.458704948E0,-4.322012901E0
3.213912986E1,1.058131814E0,7.487080574E0,-5.489167213E0
3.215579652E1,1.894484013E-1,5.183800697E0,-4.710917473E0
3.217246319E1,-1.867668927E-1,3.514122963E0,-4.070621967E0
3.218912986E1,-3.084210455E-1,2.966233969E0,-4.266792774E0
3.220579652E1,-5.515570045E-1,3.406527519E0,-4.471152306E0
3.222246319E1,-5.186607242E-1,4.585106850E0,-3.693659306E0
3.223912985E1,9.814312309E-2,5.083340168E0,-8.390527964E-1
3.225579652E1,7.494234443E-1,1.880300641E0,2.096956730E0
3.227246318E1,3.053258419E0,-1.020037174E1,6.643976688E0
3.228912985E1,3.053258419E0,-1.020037174E1,6.643976688E0
3.230579652E1,4.734476566E0,-2.081187630E1,1.633394241E1
3.232246318E1,4.734476566E0,-2.081187630E1,1.633394241E1
3.233912985E1,1.432440376E1,-1.619871902E1,1.973137283E1
3.235579652E1,8.076121330E0,-1.364482307E1,1.754027557E1
3.237246318E1,6.402612209E0,-1.399862862E1,1.174870205E1
3.238912985E1,3.622838974E0,-1.476219749E1,8.557307243E0
3.240579651E1,1.390054345E0,-1.560830879E1,7.914972305E0
3.242246318E1,1.093901157E0,-1.380819416E1,5.033272743E0
3.243912985E1,8.746784925E-1,-8.683855057E0,2.515415192E0
3.245579651E1,1.890557408E0,-4.119798660E0,3.861272633E-1
3.247246318E1,1.951647878E0,3.555006385E-1,-1.582777977E0
3.248912984E1,9.130048752E-1,4.396462917E0,-2.897951365E0
3.250579651E1,-2.516784891E-2,6.407333851E0,-4.793843269E0
3.252246318E1,7.631182671E-1,5.394653797E0,-5.063755989E0
3.253912984E1,9.785006642E-1,2.101726055E0,-3.249669075E0
3.255579651E1,1.021079198E-1,-2.425709367E-1,-2.570989609E0
3.257246317E1,-8.084261417E-1,-3.658340126E-2,-2.790987968E0
3.258912984E1,-1.162720084E0,1.355347991E0,-2.726976633E0
3.260579650E1,-1.352551579E0,2.525384665E0,-2.927706480E0
3.262246317E1,-1.472587228E0,2.823941708E0,-3.288895845E0
3.263912984E1,-9.155331254E-1,2.859816313E0,-3.268171549E0
3.265579650E1,-5.767057538E-1,2.779859543E0,-3.365893364E0
3.267246317E1,-7.875965536E-2,3.675789118E0,-4.176330566E0
3.268912984E1,-7.875965536E-2,3.675789118E0,-4.176330566E0
3.270579650E1,-5.458492637E-1,2.963581085E0,-1.715014577E0
3.272246317E1,-5.098021626E-1,2.205548048E0,-4.886948764E-1
3.273912983E1,-5.098021626E-1,2.205548048E0,-4.886948764E-1
3.275579650E1,-2.862095594E0,6.844601154E0,-3.199419677E-1
3.277246317E1,-5.738163948E0,1.976342583E1,1.546740532E0
3.278912983E1,-8.620735168E0,3.658600616E1,7.647521019E0
3.280579650E1,1.615904212E0,2.383876038E1,9.179303169E0
3.282246316E1,1.454487085E0,2.674212265E1,7.071983337E0
3.283912983E1,-6.117357731E0,3.391058350E1,1.397027206E1
3.285579650E1,-1.533860683E1,4.912253571E1,6.762460709E0
3.287246316E1,-2.143369675E1,5.176739120E1,4.168209434E-1
3.288912983E1,-2.284700584E1,3.342504501E1,1.535028100E0
3.290579649E1,-1.941951370E1,4.043894958E1,-1.139084578E0
3.292246316E1,-1.194937420E1,2.836772919E1,6.826204300E0
3.293912982E1,-3.098096848E0,2.422435188E1,3.070841312E0
3.295579649E1,2.618136168E0,2.033638763E1,3.102789640E0
3.297246316E1,5.633556843E0,1.423340416E1,5.246902943E0
3.298912982E1,8.020192146E0,8.872873306E0,5.754732132E0
3.300579649E1,7.275097847E0,4.660716057E0,4.900461197E0
3.302246316E1,5.572964191E0,1.968234897E0,3.284806490E0
3.303912982E1,4.735367298E0,1.513576031E0,-1.701702774E-1
3.305579649E1,4.819278717E0,2.762755632E0,-3.655524731E0
3.307246315E1,4.819278717E0,2.762755632E0,-3.655524731E0
3.308912982E1,4.819278717E0,2.762755632E0,-3.655524731E0
3.310579648E1,4.819278717E0,2.762755632E0,-3.655524731E0
3.312246315E1,4.819278717E0,2.762755632E0,-3.655524731E0
3.313912982E1,-7.326400757E0,3.738804340E0,-5.591724873E0
3.315579648E1,-6.459709644E0,2.533726215E0,-4.291913033E0
3.317246315E1,-6.459709644E0,2.533726215E0,-4.291913033E0
3.318912982E1,-1.548397183E0,1.642154217E0,-4.453263283E0
3.320579648E1,-1.548397183E0,1.642154217E0,-4.453263283E0
3.322246315E1,2.008505344E0,1.808934331E0,-4.608052731E0
3.323912981E1,2.657171249E0,2.020256042E0,-3.221743107E0
3.325579648E1,2.697068214E0,2.181615829E0,-8.101021051E-1
3.327246314E1,3.759595633E0,1.849884748E0,-3.535948396E-1
3.328912981E1,4.794734001E0,2.348290443E0,-7.372800112E-1
3.330579648E1,4.734007359E0,-2.789762259E0,2.770905256E0
3.332246314E1,7.234501839E0,-1.415764236E1,1.651312447E1
3.333912981E1,7.234501839E0,-1.415764236E1,1.651312447E1
3.335579648E1,1.588670635E1,-2.086861992E1,2.496326828E1
3.337246314E1,1.511414528E1,-1.770139694E1,2.942851257E1
3.338912981E1,6.344184399E0,-1.752127457E1,2.235018921E1
3.340579647E1,-7.986195087E-1,-1.608944702E1,1.434131622E1
3.342246314E1,-3.061101913E0,-1.190657616E1,9.445662498E0
3.343912980E1,-2.528640985E0,-9.512096405E0,6.778492451E0
3.345579647E1,-7.909867764E-1,-8.387989998E0,4.348119259E0
3.347246314E1,-7.909867764E-1,-8.387989998E0,4.348119259E0
3.348912980E1,-7.909867764E-1,-8.387989998E0,4.348119259E0
3.350579647E1,2.265776634E0,5.582770824E0,-6.835829258E0
3.352246314E1,2.265776634E0,5.582770824E0,-6.835829258E0
3.353912980E1,3.132046938E0,4.813035011E0,-6.065729141E0
3.355579647E1,1.831430197E0,3.818521976E0,-4.160729885E0
3.357246313E1,8.327033520E-1,4.463615894E0,-2.597411871E0
3.358912980E1,1.924842447E-1,4.939946651E0,-1.992397189E0
3.360579647E1,3.004819155E-1,3.821040630E0,-2.088500500E0
3.362246313E1,5.457247496E-1,2.185886860E0,-2.065295935E0
3.363912980E1,1.258076429E0,1.689990401E0,-2.654374838E0
3.365579646E1,1.826182127E0,2.344143867E0,-3.278581619E0
3.367246313E1,1.650227427E0,2.408997774E0,-2.754500151E0
3.368912980E1,5.256996751E-1,1.550082803E0,-1.808876872E0
3.370579646E1,-4.753543735E-1,1.147751570E0,-7.063373923E-1
3.372246313E1,-1.168849230E0,1.890423298E0,-6.067003012E-1
3.373912979E1,-1.332746744E0,2.800890446E0,7.108864188E-2
3.375579646E1,-1.146707654E0,3.143787861E0,1.341902167E-1
3.377246312E1,-2.927294731E0,1.027824116E1,-6.117156506E0
3.378912979E1,-1.104029560E1,3.906069183E1,3.420031071E0
3.380579646E1,-7.762126446E0,2.973044014E1,7.557719231E0
3.382246312E1,-6.180171967E0,3.393310547E1,8.511569023E0
3.383912979E1,-1.151968288E1,3.748209763E1,1.434626770E1
3.385579646E1,-1.029429245E1,4.726012421E1,5.101268291E0
3.387246312E1,-2.087459373E1,3.590536499E1,2.678661585E0
3.388912979E1,-2.087459373E1,3.590536499E1,2.678661585E0
3.390579645E1,-6.511845589E0,2.814218330E1,5.919500828E0
3.392246312E1,-1.241977811E0,2.171697044E1,5.225872040E0
3.393912978E1,1.918291926E0,1.726745033E1,3.265202522E0
3.395579645E1,3.930407763E0,1.035997009E1,3.095214367E0
3.397246312E1,3.930407763E0,1.035997009E1,3.095214367E0
3.398912978E1,7.076724052E0,9.225720763E-1,2.761558294E0
3.400579645E1,5.841469288E0,-7.667766213E-1,2.621583700E0
3.402246312E1,4.805239201E0,7.153204083E-1,8.308358788E-1
3.403912978E1,4.068265915E0,4.602057934E0,-1.207051158E0
3.405579645E1,3.570846319E0,9.099106789E0,-3.524475574E0
3.407246311E1,3.454114676E0,1.252860832E1,-5.366909504E0
3.408912978E1,1.860342622E0,1.326718140E1,-7.329436302E0
3.410579644E1,-2.065851212E0,1.106285000E1,-9.223681450E0
3.412246311E1,-5.734333515E0,7.065068722E0,-8.441418648E0
3.413912978E1,-6.250293255E0,3.143797636E0,-6.037161827E0
