"Time (s)","Acceleration x (m/s^2)","Acceleration y (m/s^2)","Acceleration z (m/s^2)"
9.763444000E-3,2.132889032E0,7.797053337E0,5.142812729E0
2.576344400E-2,1.714171767E0,7.782132149E0,4.821328640E0
4.176500600E-2,6.147831678E-1,7.558188438E0,4.949791431E0
5.776500600E-2,-8.484668136E-1,7.621816635E0,3.263162851E0
7.376500600E-2,-1.452351451E0,7.287748814E0,2.805458546E0
8.976500600E-2,-8.703402281E-1,7.281025887E0,3.225430250E0
1.057650060E-1,1.357033551E-1,8.489169121E0,2.392765045E0
1.217650060E-1,1.272010565E0,9.329955101E0,4.098480701E0
1.377696940E-1,1.209493279E0,9.568388939E0,3.135542154E0
1.537665690E-1,1.033078909E0,8.761916161E0,2.752872229E0
1.697650060E-1,9.241139293E-1,8.539150238E0,1.845690012E0
1.857696940E-1,9.669988751E-1,8.592637062E0,1.895891666E0
2.017650060E-1,4.612381458E-1,9.132250786E0,2.041535854E0
2.177650060E-1,-3.908390403E-1,9.674681664E0,1.555330992E0
2.337634440E-1,-1.150011778E0,9.757368088E0,8.659540415E-1
2.497634440E-1,-1.750506282E0,9.539888382E0,4.038826525E-1
2.657634440E-1,-2.440045834E0,9.277875900E0,-2.465261519E-1
2.817634440E-1,-1.976107001E0,9.248379707E0,-9.691537023E-1
2.977634440E-1,-8.778675795E-1,1.079649067E1,-4.004254341E-1
3.137634440E-1,4.663713276E-1,1.380058098E1,3.726910055E-1
3.297650060E-1,1.838344693E0,1.540463829E1,5.878340006E-1
3.457634440E-1,1.939322472E0,1.330772972E1,2.572330274E-2
3.617634440E-1,1.635402560E0,1.140890694E1,-4.508664906E-1
3.777634440E-1,1.830041647E0,1.081774998E1,6.084241271E-1
3.937634440E-1,2.044380188E0,1.107082748E1,3.028693914E0
4.097634440E-1,2.727321386E0,1.401710224E1,4.189948738E-1
4.257634440E-1,7.498754978E0,1.714618111E1,1.549862504E0
4.417634440E-1,9.144174576E0,1.637738419E1,6.383746147E0
4.577634440E-1,6.330029964E0,1.420980740E1,7.379533291E0
4.737634440E-1,3.271437168E0,1.338853931E1,6.870372772E0
4.897634440E-1,1.248011112E0,1.422352123E1,7.145044804E0
5.057634440E-1,1.362032652E0,1.567143822E1,5.834219456E0
5.217634440E-1,3.907528877E0,1.604533768E1,5.698688507E0
5.377634440E-1,5.259936333E0,1.424641991E1,7.976732731E0
5.537634440E-1,4.933118820E0,1.170793343E1,9.210857391E0
5.697634440E-1,4.060920238E0,9.923142433E0,9.659455299E0
5.857634440E-1,4.878769875E0,9.058184624E0,8.482436180E0
6.017634440E-1,6.719738960E0,8.206011772E0,8.998712540E0
6.177634440E-1,6.779153347E0,7.012013435E0,8.741402626E0
6.337634440E-1,6.121169567E0,4.403684139E0,7.634841442E0
6.497634440E-1,5.578173637E0,2.156610489E0,5.761598587E0
6.657634440E-1,6.017031193E0,6.973256469E-1,4.984833717E0
6.817634440E-1,5.588382721E0,4.182000160E-1,3.583688974E0
6.977634440E-1,4.810640812E0,2.889131308E-1,2.461076736E0
7.137634440E-1,3.702154160E0,1.360203505E0,-5.388868973E-2
7.297634440E-1,3.322711468E0,3.751656532E0,-1.267796874E0
7.457634440E-1,3.113477230E0,5.297554016E0,-8.787965178E-1
7.617634440E-1,2.523306608E0,5.230123997E0,-1.234067306E-1
7.777634440E-1,1.543982387E0,4.521229267E0,4.747223109E-2
7.937634440E-1,4.072249830E-1,3.639780283E0,-1.196143180E-1
8.097634440E-1,2.641474903E-1,2.040060997E0,7.335834205E-3
8.257650060E-1,1.312223673E0,3.904464245E-1,3.114377521E-2
8.417634440E-1,3.039956331E0,-1.128961921E0,3.791266084E-1
8.577634440E-1,5.467983246E0,-2.294928551E0,1.968416929E0
8.737634440E-1,7.163508892E0,-2.124997616E0,2.201918364E0
8.897634440E-1,5.492739201E0,-3.370825291E0,6.521499157E0
9.057634440E-1,2.254236460E0,-7.313692570E0,1.030727768E1
9.217634440E-1,3.065861464E0,-1.171956921E1,1.170573997E1
9.377634440E-1,6.155694008E0,-1.242786980E1,1.110456657E1
9.537650060E-1,8.404979706E0,-1.103668594E1,1.078873253E1
9.697634440E-1,8.259842873E0,-1.049264622E1,1.244200611E1
9.857634440E-1,8.116765022E0,-7.515562057E0,1.093635941E1
1.001765006E0,8.336658478E0,-5.122873306E0,1.043852806E1
1.017763444E0,7.495843410E0,-2.476945400E0,9.027912140E0
1.033763444E0,7.331974506E0,-5.702988505E-1,7.150513172E0
1.049763444E0,7.887189865E0,3.170028210E0,3.871175051E0
1.065763444E0,8.289434433E0,6.071599483E0,2.281367779E0
1.081763444E0,7.644187927E0,7.029548168E0,1.945288897E0
1.097763444E0,6.007636070E0,6.214983940E0,1.621793985E0
1.113763444E0,4.750191689E0,4.134939671E0,9.882881641E-1
1.129763444E0,4.304209709E0,1.464657664E0,1.005133748E0
1.145763444E0,3.262329578E0,-4.237832725E-1,1.665569425E0
1.161763444E0,2.234460354E0,-9.432579875E-1,1.963417768E0
1.177763444E0,1.074000597E0,-6.152140498E-1,1.828308225E0
1.193763444E0,-2.365471274E-1,7.705498487E-2,1.872926474E0
1.209763444E0,-1.284316778E0,7.082431912E-1,2.485660076E0
1.225763444E0,-3.030044079E0,3.377672672E0,-2.350157976E0
1.241763444E0,-1.570289969E0,4.906322956E0,-2.752460480E0
1.257765006E0,1.624513745E0,3.377289534E0,1.602937102E0
1.273763444E0,5.570876598E0,3.836622000E0,4.461106300E0
1.289763444E0,6.646696568E0,8.634075165E0,6.885475159E0
1.305763444E0,5.210089207E0,1.470248604E1,9.188524246E0
1.321763444E0,6.293753147E0,1.772255135E1,1.170009995E1
1.337763444E0,8.519584656E0,1.784801674E1,1.108444500E1
1.353763444E0,7.876004219E0,1.899803925E1,8.813669205E0
1.369763444E0,6.328526497E0,1.779434013E1,6.964598656E0
1.385763444E0,5.845137119E0,1.533827114E1,6.840818405E0
1.401763444E0,5.175009251E0,1.387906265E1,7.650527954E0
1.417765006E0,4.081855297E0,1.286831760E1,8.468521118E0
1.433763444E0,4.401653767E0,1.228573990E1,8.936674118E0
1.449765006E0,6.251260757E0,1.226939392E1,8.251807213E0
1.465763444E0,9.186878204E0,1.253492832E1,7.616443634E0
1.481763444E0,1.058723640E1,1.198771954E1,6.621729851E0
1.497763444E0,8.738988876E0,1.086802864E1,4.389595985E0
1.513763444E0,7.287231922E0,1.008451176E1,2.639348984E0
1.529763444E0,6.130745888E0,1.009447193E1,1.987953663E0
1.545763444E0,4.312129974E0,1.062072659E1,1.057538033E0
1.561763444E0,1.384432793E0,1.085667133E1,-9.860280901E-2
1.577763444E0,-5.094286203E-1,1.062284279E1,-7.082431912E-1
1.593763444E0,-2.453156471E0,9.566290855E0,-6.899802089E-1
1.609763444E0,-5.944256783E0,6.945914745E0,6.330652237E-1
1.625763444E0,-8.980468750E0,5.200474262E0,2.972449362E-1
1.641763444E0,-9.769530296E0,4.130093575E0,1.480219960E0
1.657765006E0,-7.518914223E0,4.026760101E0,2.816730499E0
1.673763444E0,-4.565464973E0,5.227165222E0,3.752978325E0
1.689763444E0,-2.783470154E0,5.837035179E0,5.049543858E0
1.705765006E0,-1.808398008E0,5.797090530E0,6.278870583E0
1.721763444E0,-1.014126420E0,5.679257393E0,7.160281658E0
1.737763444E0,-2.742797434E-1,5.889726639E0,7.900626183E0
1.753763444E0,3.496875167E-1,6.405399323E0,8.290976524E0
1.769763444E0,8.124963045E-1,6.439521313E0,8.376880646E0
1.785765006E0,6.799916029E-1,6.233150959E0,8.203291893E0
1.801765006E0,-2.978290915E-1,6.038770676E0,7.957608223E0
1.817765006E0,-1.050336361E0,6.210473061E0,7.724116325E0
1.833765006E0,-1.042770624E0,6.625369072E0,7.312859535E0
1.849765006E0,-9.258282185E-1,6.722181320E0,7.276237488E0
1.865765006E0,-7.074195743E-1,6.531037807E0,7.611195564E0
1.881765006E0,-3.721259832E-1,6.289750099E0,7.934652328E0
1.897765006E0,-6.724833697E-2,5.968275547E0,7.999764919E0
1.913763444E0,6.482540816E-2,5.801045418E0,7.998041630E0
1.929763444E0,-3.381570429E-2,5.847799301E0,8.000310898E0
1.945763444E0,-2.050202787E-1,6.023255825E0,7.848106861E0
1.961763444E0,-4.215710461E-1,6.005787849E0,7.811006546E0
1.977765006E0,-5.070153475E-1,5.997513771E0,7.690539360E0
1.993765006E0,-7.085017562E-1,5.927478313E0,7.725007057E0
2.009765006E0,-7.112885714E-1,5.950615883E0,7.419353485E0
2.025765006E0,-3.212444186E-1,6.043300152E0,7.349490643E0
2.041765006E0,-1.554028541E-1,6.009551525E0,7.450066090E0
2.057765006E0,-2.518891692E-1,5.923925400E0,7.638968945E0
2.073765006E0,-5.159409046E-1,5.939372540E0,7.569737911E0
2.089765006E0,-6.383037567E-1,5.963103771E0,6.754320621E0
2.105763444E0,-8.831060529E-1,5.752691746E0,5.888328552E0
2.121765006E0,-4.644751251E-1,5.850796700E0,3.760831356E0
2.137765006E0,-2.148259878E0,5.020755768E0,6.617190838E-1
2.153765006E0,-5.110567570E0,3.857892036E0,-1.852307558E0
2.169763444E0,-6.565102100E0,3.605705976E0,-3.904368401E0
2.185763444E0,-7.210760593E0,4.135006905E0,-4.337967873E0
2.201763444E0,-7.397307396E0,6.828578949E0,-2.908102751E0
2.217765006E0,-6.484264374E0,1.148418999E1,-1.773816198E-1
2.233763444E0,-3.332661629E0,1.879046059E1,-9.121812582E-1
2.249763444E0,1.641368866E0,2.469101906E1,1.607696891E0
2.265763444E0,1.058578110E1,2.387363815E1,4.968294144E0
2.281763444E0,2.256453705E1,2.192895317E1,7.278095245E0
2.297763444E0,2.785544586E1,1.802123260E1,1.192514515E1
2.313763444E0,2.768311882E1,1.285693932E1,1.683301926E1
2.329763444E0,2.232106590E1,1.269753456E1,1.443347359E1
2.345763444E0,1.789921570E1,1.346691513E1,1.102533722E1
2.361763444E0,1.385842514E1,1.359069538E1,7.618321419E0
2.377765006E0,1.104493999E1,1.262148476E1,4.882850170E0
2.393763444E0,8.563916206E0,1.023462772E1,1.264866352E0
2.409763444E0,7.016600609E0,6.518146992E0,-7.083772421E-1
2.425763444E0,4.319532871E0,3.587309122E0,-1.814795256E0
2.441763444E0,1.251056552E0,2.522837400E0,-3.820370197E0
2.457765006E0,-7.861409187E-1,2.456374168E0,-4.441627502E0
2.473763444E0,-1.305663586E0,3.885090351E0,-3.842013597E0
2.489763444E0,-5.402180552E-1,4.871310234E0,-2.404113770E0
2.505763444E0,-1.136192307E-1,4.802902699E0,-1.007144928E0
2.521763444E0,2.381081581E-1,3.345102072E0,-1.070581675E0
2.537765006E0,9.431430697E-1,2.463164330E0,-1.845680594E0
2.553763444E0,3.600592017E-1,1.145165801E0,-1.986210585E0
2.569765006E0,-2.440687418E0,-1.931967497E0,2.005555868E0
2.585765006E0,-2.946716309E0,-5.038741112E0,7.273747444E0
2.601765006E0,-7.531583905E-1,-5.167597294E0,6.217061996E0
2.617765006E0,1.046620488E0,-3.138693094E0,4.522876740E0
2.633765006E0,1.305165529E0,-3.866013288E0,7.446149349E0
2.649765006E0,4.208154202E0,-6.747540474E0,8.569470406E0
2.665765006E0,8.084089279E0,-9.739201546E0,8.586363792E0
2.681765006E0,1.030459690E1,-1.014026737E1,8.336246490E0
2.697763444E0,1.294280529E1,-8.518693924E0,7.193848133E0
2.713763444E0,1.527067757E1,-8.320234299E0,7.570982933E0
2.729763444E0,1.336306477E1,-5.554720402E0,5.395850658E0
2.745765006E0,1.002879429E1,-8.688366413E-1,3.416487455E0
2.761763444E0,7.312313557E0,4.045320034E0,2.465079546E0
2.777763444E0,6.553380489E0,6.548543930E0,2.118772745E0
2.793763444E0,6.018946171E0,5.886221886E0,1.729781985E0
2.809763444E0,5.868016243E0,4.647538185E0,1.328283906E0
2.825765006E0,5.843163967E0,3.822027206E0,1.074048519E0
2.841763444E0,6.046067715E0,2.412570000E0,8.994536996E-1
2.857763444E0,5.588593483E0,4.769632816E-1,1.039313316E0
2.873763444E0,4.784151554E0,-1.068953633E0,1.621832252E0
2.889763444E0,3.241509676E0,-1.791360855E0,1.690354228E0
2.905763444E0,1.248585820E0,-1.337506413E0,1.521036386E0
2.921763444E0,-7.509844303E-1,1.548665464E-1,8.354614973E-1
2.937765006E0,-8.416289091E-1,9.960549474E-1,-1.597028375E-1
2.953765006E0,-3.118687272E-1,1.414484739E0,-5.607411861E-1
2.969763444E0,1.956694841E0,2.151544571E0,-5.130678415E-1
2.985763444E0,5.348148346E0,1.261552691E0,2.256563663E0
3.001763444E0,8.385078430E0,6.688451767E0,3.196834087E0
3.017763444E0,6.604041576E0,1.550172806E1,2.041832685E0
3.033763444E0,5.966676235E0,2.067608643E1,9.095667601E-1
3.049763444E0,-8.571146131E-1,3.116551590E1,8.555468559E0
3.065763444E0,-1.240932941E1,3.958807755E1,1.021366405E1
3.081763444E0,-2.736381054E0,3.394689941E1,8.732055664E0
3.097763444E0,3.908792973E0,3.234573364E1,8.091578484E0
3.113763444E0,-1.070926428E0,3.194307327E1,8.519001007E0
3.129763444E0,-2.992953062E0,2.762147522E1,9.185603142E0
3.145763444E0,-3.727522850E0,2.205561447E1,8.023314476E0
3.161763444E0,-2.108506441E0,1.600194359E1,5.574659348E0
3.177765006E0,1.956742764E0,1.137486267E1,2.601606607E0
3.193763444E0,3.841917992E0,6.390545845E0,1.197062492E0
3.209763444E0,4.809433937E0,1.734216094E0,-1.736275107E-2
3.225763444E0,4.109877110E0,-1.139946461E0,-4.708245397E-1
3.241763444E0,2.984171391E0,-2.665416718E0,-1.790479720E-1
3.257765006E0,2.222556591E0,-2.339422464E0,1.211695910E0
3.273765006E0,1.553951740E0,-4.969117641E-1,2.128703833E0
3.289763444E0,1.680202842E0,1.123579741E0,2.697278738E0
3.305763444E0,2.688008547E0,2.377174139E0,2.576812267E0
3.321765006E0,3.563405275E0,3.596876144E0,2.067009926E0
3.337763444E0,3.852193832E0,5.477713585E0,1.571668983E0
3.353763444E0,4.232852936E0,7.561406136E0,1.143949628E0
3.369763444E0,4.089669704E0,8.052255630E0,1.746895790E0
3.385763444E0,3.665771723E0,7.512296200E0,1.637078524E0
3.401763444E0,3.002022505E0,6.201413631E0,4.513836503E-1
3.417763444E0,2.841342688E0,4.460282803E0,6.837361455E-1
3.433763444E0,2.921117783E0,1.186815262E0,3.985598803E0
3.449763444E0,4.289470673E0,-1.973339319E0,3.597249746E0
3.465763444E0,4.903439999E0,-4.746438026E0,-1.013044238E0
3.481763444E0,-6.313988566E-2,-9.845887184E0,5.727888346E-1
3.497763444E0,-2.462503433E0,-1.374373245E1,5.907338142E0
3.513765006E0,3.656846285E0,-1.637441444E1,7.352344036E0
3.529763444E0,6.328813553E0,-1.622483444E1,1.037158585E1
3.545763444E0,4.513817310E0,-1.575436401E1,1.244799137E1
3.561763444E0,5.859013557E0,-1.431618690E1,1.205922031E1
3.577763444E0,8.373414040E0,-8.977691650E0,1.088214493E1
3.593763444E0,8.458523750E0,-2.040396214E0,9.681356430E0
3.609765006E0,8.488909721E0,1.252569675E0,9.141080856E0
3.625763444E0,8.009533882E0,3.940540075E0,6.954112530E0
3.641763444E0,7.065097809E0,7.511903763E0,4.500544071E0
3.657765006E0,7.510611057E0,9.989270210E0,2.545984507E0
3.673765006E0,8.719375610E0,8.758640289E0,1.465854764E0
3.689765006E0,9.253494263E0,4.848689556E0,9.659550190E-1
3.705765006E0,8.084319115E0,8.137795925E-1,1.076318145E0
3.721765006E0,4.932802677E0,-1.524120092E0,1.435572863E0
3.737765006E0,1.747700214E0,-1.812841654E0,1.448693156E0
3.753765006E0,-1.737041175E-1,-1.006053090E0,1.205959320E0
3.769765006E0,-1.139209151E0,7.200801373E-2,7.018650174E-1
3.785765006E0,-1.843812943E0,6.195715070E-1,4.267425239E-1
3.801765006E0,-2.317405224E0,7.064139843E-1,2.883672118E-1
3.817765006E0,-2.487278461E0,3.830722766E-3,-3.189747036E-1
3.833765006E0,-2.270124435E0,-4.628853798E-1,-1.381329775E0
3.849765006E0,-1.618422866E0,-1.087350622E-1,-1.884121776E0
3.865765006E0,1.711949855E-1,8.148809075E-1,-2.143998146E0
3.881765006E0,2.685164213E0,2.336941957E0,-1.327096462E0
3.897763444E0,4.118620396E0,6.820285797E0,-1.055593967E0
3.913763444E0,3.502937317E0,2.429591751E1,4.464515686E0
3.929763444E0,1.059444809E1,2.773269844E1,1.637903976E1
3.945763444E0,1.209847569E0,2.683154106E1,1.303002167E1
3.961765006E0,-9.206059456E0,3.092863274E1,4.151612759E0
3.977763444E0,1.537987351E0,3.586684799E1,7.921915531E0
3.993765006E0,4.641571999E0,3.849930954E1,1.272012520E1
4.009765006E0,-2.271647215E0,3.409198380E1,1.096151733E1
4.025765006E0,-2.878117561E0,2.734988403E1,7.739036560E0
4.041765006E0,-1.349027395E0,2.258683205E1,6.328545570E0
4.057765006E0,3.676727712E-1,1.844334030E1,5.936078072E0
4.073765006E0,2.477653980E0,1.253087807E1,4.509488106E0
4.089765006E0,4.090733051E0,7.165089130E0,2.608176231E0
4.105765006E0,3.958841324E0,2.999743223E0,9.251386523E-1
4.121765006E0,2.155595541E0,-6.053691506E-1,8.845042586E-1
4.137765006E0,1.188893557E0,-1.711365819E0,8.977298439E-2
4.153765006E0,4.819623828E-1,-1.608577847E0,4.906389713E-1
4.169765006E0,1.418133527E-1,-5.384080857E-2,1.112164140E0
4.185765006E0,3.151631355E-1,1.105316758E0,1.521735430E0
4.201765006E0,1.629349947E0,1.467463613E0,1.264971733E0
4.217765006E0,2.508692265E0,1.753149390E0,5.836681128E-1
4.233765006E0,3.157521009E0,1.993364453E0,2.726899981E-1
4.249763444E0,3.424551249E0,2.523967505E0,6.478230953E-1
4.265763444E0,3.525213003E0,4.572465420E0,9.725630283E-1
4.281763444E0,3.712468147E0,6.244834423E0,1.554133773E0
4.297763444E0,3.898239374E0,7.019483566E0,2.373956203E0
4.313763444E0,3.890223503E0,5.888433456E0,2.741332293E0
4.329763444E0,3.637769222E0,1.946667910E0,3.595908880E0
4.345765006E0,4.221159458E0,-3.423765898E0,5.122509480E0
4.361763444E0,6.313739777E0,-2.822304249E0,-1.327872157E0
4.377765006E0,6.730905056E0,-2.244439602E0,-3.377452374E0
4.393763444E0,8.737016320E-1,-1.137212276E1,8.513657570E0
4.409765006E0,7.037516236E-1,-1.251959705E1,8.612939835E0
4.425763444E0,5.738920212E0,-1.280970669E1,7.683223248E0
4.441763444E0,7.040820122E0,-1.416372395E1,1.342347431E1
4.457765006E0,2.366754532E0,-1.452339935E1,1.367390823E1
4.473763444E0,4.756484032E0,-1.287806606E1,1.296647930E1
4.489763444E0,6.960135937E0,-7.930419445E0,1.065693665E1
4.505765006E0,7.199249744E0,-3.514678478E0,8.957542419E0
4.521763444E0,7.531909466E0,-1.927140802E-1,6.777209282E0
4.537765006E0,7.879969120E0,4.377405167E0,4.678921223E0
4.553763444E0,7.786767483E0,8.856362343E0,3.067498922E0
4.569765006E0,7.829767704E0,1.088517094E1,1.854740143E0
4.585765006E0,7.399299145E0,8.928533554E0,1.246957779E0
4.601763444E0,5.791353703E0,4.403253078E0,1.291384578E0
4.617763444E0,3.642002106E0,7.305858731E-1,1.658137918E0
4.633763444E0,1.579062223E0,-1.089380980E0,2.219252586E0
4.649763444E0,-6.300006509E-1,-9.374161363E-1,2.851647377E0
4.665763444E0,-2.282382727E0,1.024622560E0,2.675558567E0
4.681763444E0,-2.684082031E0,4.124309063E0,1.716633081E0
4.697765006E0,-1.627166510E0,6.047887802E0,8.994249701E-1
4.713763444E0,2.879554033E-1,5.923973083E0,4.075601697E-1
4.729763444E0,2.110220671E0,5.088990688E0,6.273478866E-1
4.745763444E0,3.860410929E0,3.915487051E0,1.261294246E0
4.761763444E0,5.651321888E0,2.001638889E0,2.087868452E0
4.777763444E0,8.364239693E0,-5.130295157E-1,1.529052138E0
4.793765006E0,1.243803120E1,2.059971169E-2,-2.822476625E-1
4.809763444E0,1.301139450E1,2.544183969E0,-2.807431459E0
4.825763444E0,8.199518204E0,1.001922703E1,-3.620779991E0
4.841765006E0,-3.293923616E0,2.424575615E1,1.072458744E0
4.857763444E0,-1.654039955E1,3.376108932E1,1.333135509E1
4.873763444E0,-1.269369316E1,3.271653748E1,5.602518082E0
4.889763444E0,5.399499536E-1,3.889548492E1,7.653056145E0
4.905765006E0,8.869378090E0,3.920347214E1,1.266162968E1
4.921765006E0,1.425114989E0,3.527814865E1,8.609998703E0
4.937765006E0,-4.239173532E-1,2.762781525E1,7.947035313E0
4.953765006E0,-5.103384852E-1,2.168234062E1,6.447249889E0
4.969765006E0,-1.079306100E-2,1.587259007E1,4.687262535E0
4.985765006E0,2.579082012E0,9.732066154E0,2.621583700E0
5.001765006E0,5.330776215E0,4.894217968E0,6.635099053E-1
5.017765006E0,6.028206825E0,1.419407248E0,-1.446864009E-1
5.033765006E0,3.762047291E0,-1.709948540E0,4.988750219E-1
5.049765006E0,1.885156155E0,-3.115890741E0,3.001849949E-1
5.065765006E0,8.890916109E-1,-3.281492949E0,7.840052843E-1
5.081765006E0,4.153365493E-1,-1.840145111E0,1.764995933E0
5.097765006E0,8.445498943E-1,4.125592709E-1,2.786803007E0
5.113765006E0,2.380420685E0,2.747059107E0,2.791035891E0
5.129765006E0,4.218909264E0,4.590010166E0,2.050154924E0
5.145765006E0,5.070852280E0,5.745701313E0,1.749759316E0
5.161765006E0,5.050175667E0,6.353368759E0,1.612954617E0
5.177765006E0,4.983789444E0,7.350773811E0,1.568853378E0
5.193765006E0,4.343464851E0,7.722028255E0,7.913507223E-1
5.209765006E0,2.238741398E0,7.723647118E0,6.440306902E-1
5.225765006E0,5.228936300E-2,6.114743233E0,2.015984774E0
5.241765006E0,1.360308886E0,2.799827337E0,4.913658619E0
5.257765006E0,5.151488781E0,9.959879331E-3,3.572216034E0
5.273765006E0,6.799628258E0,-7.084060311E-1,-2.034018040E0
5.289765006E0,2.776450396E0,-9.869473457E0,4.729879379E0
5.305765006E0,2.822476625E-1,-1.630389023E1,5.921415806E0
5.321765006E0,2.443177462E0,-1.544611549E1,9.184329987E0
5.337765006E0,5.530615807E0,-1.357480717E1,9.440959930E0
5.353765006E0,5.479485035E0,-1.474276638E1,1.209607220E1
5.369765006E0,3.984842300E0,-1.587293434E1,1.192573929E1
5.385765006E0,4.973723888E0,-1.161889839E1,1.016775322E1
5.401765006E0,6.218220711E0,-4.607095242E0,9.216526985E0
5.417765006E0,7.413176060E0,-1.831937790E0,9.144988060E0
5.433765006E0,7.887697220E0,1.643188477E0,6.731805801E0
5.449765006E0,7.345324516E0,7.208979607E0,3.696226120E0
5.465765006E0,7.641334057E0,1.085409451E1,3.144324303E0
5.481765006E0,7.274532795E0,1.062520885E1,1.400426030E0
5.497765006E0,6.905547619E0,6.698037624E0,2.414313108E-1
5.513765006E0,5.974069118E0,2.098594427E0,4.961743578E-2
5.529765006E0,3.264647245E0,-7.104170918E-1,9.107830524E-1
5.545765006E0,2.607668638E-1,-1.863684893E0,1.683162093E0
5.561765006E0,-1.406718016E0,-9.613198638E-1,1.193318009E0
5.577765006E0,-1.983385324E0,1.108017325E0,9.118077904E-2
5.593765006E0,-1.765800357E0,3.162845612E0,-8.095274568E-1
5.609765006E0,-6.769653559E-1,4.500218391E0,-1.402274370E0
5.625765006E0,4.437030256E-1,4.807336807E0,-1.459457517E0
5.641765006E0,1.662380338E0,4.621019840E0,-9.604963064E-1
5.657765006E0,2.834514618E0,3.196852922E0,1.572607458E-1
5.673765006E0,3.258996725E0,-6.107129529E-2,2.127382278E0
5.689765006E0,4.874441624E0,-5.048796654E0,2.789455652E0
5.705765006E0,1.025106144E1,1.195731282E0,-1.713999391E0
5.721765006E0,1.256983662E1,2.155996895E1,-1.044676423E0
5.737765006E0,1.664161682E-1,3.415802002E1,9.467745781E0
5.753765006E0,-9.641392708E0,3.198507881E1,1.465675640E1
5.769765006E0,-6.309430122E0,3.643340302E1,2.486799717E0
5.785765006E0,4.746523857E0,3.763845062E1,8.038168907E0
5.801765006E0,4.944543362E0,3.862105942E1,1.041115761E1
5.817765006E0,-1.986306429E0,3.483887100E1,9.492234230E0
5.833765006E0,-2.120592356E0,2.614745903E1,7.464565277E0
5.849765006E0,3.764930069E-1,2.035049438E1,5.427607536E0
5.865765006E0,3.156659126E0,1.327326298E1,3.601607084E0
5.881765006E0,5.473547459E0,7.099038124E0,1.897529244E0
5.897765006E0,5.829516888E0,2.710964203E0,5.617371798E-1
5.913765006E0,4.023925304E0,-5.937237144E-1,9.951451421E-1
5.929765006E0,1.934256315E0,-2.584473610E0,7.630225420E-1
5.945765006E0,1.196784735E0,-2.793650389E0,6.918476820E-1
5.961765006E0,7.032153606E-1,-1.996582270E0,1.026202798E0
5.977765006E0,1.381387353E0,1.503750086E-1,1.792739868E0
5.993765006E0,1.764555454E0,2.191115856E0,2.587203026E0
6.009765006E0,2.838632584E0,3.415951252E0,2.862995863E0
6.025765006E0,4.258260250E0,4.591293335E0,2.461536169E0
6.041765006E0,5.437260628E0,6.182135105E0,2.262721777E0
6.057765006E0,5.975295544E0,8.121419907E0,1.481934190E0
6.073765006E0,4.685625076E0,8.741939545E0,-2.965745628E-1
6.089765006E0,2.204322338E0,8.226782799E0,-3.968820274E-1
6.105765006E0,8.502672315E-1,6.780551910E0,3.165805042E-1
6.121765006E0,3.190704584E-1,2.241020679E0,3.865314245E0
6.137765006E0,2.156754494E0,-3.971319914E0,6.203913212E0
6.153765006E0,4.495889664E0,-4.379100323E0,5.646581054E-1
6.169765006E0,4.195350170E0,-3.643831253E0,-5.247898579E0
6.185765006E0,2.072497606E0,-1.181493568E1,3.293004036E0
6.201765006E0,4.946947098E0,-1.274913406E1,6.721749783E0
6.217765006E0,6.216640472E0,-1.346858215E1,7.849946022E0
6.233765006E0,5.068352699E0,-1.765255547E1,7.660353661E0
6.249765006E0,3.504201412E0,-2.070726013E1,9.760700226E0
6.265765006E0,4.410157681E0,-1.814952278E1,9.278986931E0
6.281765006E0,5.050989628E0,-1.060696507E1,8.544043541E0
6.297765006E0,5.297564030E0,-4.820830345E0,9.123900414E0
6.313765006E0,5.826864243E0,-1.339402556E0,8.078208923E0
6.329765006E0,5.572149754E0,3.072211027E0,5.486505032E0
6.345765006E0,5.438065529E0,8.393391609E0,2.936948061E0
6.361765006E0,5.424992561E0,1.169237137E1,1.532375216E0
6.377765006E0,5.524333000E0,1.058798313E1,4.153652787E-1
6.393765006E0,6.498198509E0,6.698248386E0,-6.969138384E-1
6.409765006E0,7.748172760E0,2.874880791E0,-3.651923835E-1
6.425765006E0,7.205685139E0,1.373342752E0,1.422280312E0
6.441765006E0,4.995310783E0,1.121501565E0,3.239268780E0
6.457765006E0,2.268170834E0,7.751371264E-1,4.316018105E0
6.473765006E0,4.351796806E-1,6.290141940E-1,3.796906948E0
6.489765006E0,-6.452851892E-1,8.002667427E-1,2.083405495E0
6.505765006E0,-4.748659730E-1,9.986502528E-1,5.898738503E-1
6.521765006E0,6.219082475E-1,7.594886422E-1,-4.721748829E-1
6.537765006E0,1.973310709E0,1.648934633E-1,-1.320344687E0
6.553765006E0,4.115211487E0,4.575989544E-1,-2.854721785E0
6.569765006E0,6.270126820E0,1.732894421E0,-2.856665850E0
6.585765006E0,6.690433979E0,1.915964723E0,-2.252177596E-1
6.601765006E0,4.595200539E0,2.158066511E0,-2.052433968E0
6.617765006E0,7.705900669E0,1.591789722E1,-1.375229470E-2
6.633765006E0,5.520646095E0,2.723165131E1,1.034792233E1
6.649765006E0,4.648390412E-1,3.485811234E1,1.313949394E1
6.665766569E0,-8.721052170E0,3.085906601E1,7.377243996E0
6.681765006E0,4.588248208E-2,3.542847061E1,3.742683172E0
6.697765006E0,8.090122223E0,3.759676361E1,1.062128258E1
6.713765006E0,1.112240672E0,3.484890747E1,1.163989067E1
6.729765006E0,-2.357034206E0,2.716957474E1,8.834020615E0
6.745765006E0,-1.891400099E0,2.156352234E1,5.582138538E0
6.761765006E0,1.036143422E0,1.529083729E1,3.946611643E0
6.777765006E0,4.219560146E0,8.946748734E0,2.793774843E0
6.793765006E0,5.150043011E0,3.791764259E0,1.726889729E0
6.809765006E0,4.106486797E0,-1.527021825E-1,1.310394526E0
6.825765006E0,1.431828380E0,-3.292994738E0,5.372779965E-1
6.841765006E0,7.027269006E-1,-4.093529701E0,-2.153632343E-1
6.857765006E0,1.444977283E0,-3.824995756E0,1.411822438E0
6.873765006E0,2.587586164E0,-1.462196469E0,3.353979826E0
6.889765006E0,3.669631243E0,2.463767529E0,4.168975353E0
6.905765006E0,5.404019356E0,6.370185375E0,3.128110647E0
6.921765006E0,7.592760563E0,9.094098091E0,2.188080072E0
6.937765006E0,8.140525818E0,1.040238476E1,1.141842604E0
6.953765006E0,6.927574635E0,1.044292355E1,9.617987275E-2
6.969765006E0,3.964156151E0,8.890657425E0,-7.214591503E-1
6.985765006E0,7.951718569E-1,6.861667156E0,-2.227565348E-1
7.001765006E0,-4.804492593E-1,3.622475147E0,1.920552015E0
7.017765006E0,1.048468798E-1,3.564487696E-1,3.524829865E0
7.033765006E0,2.527204275E0,-2.171435595E0,1.674801469E0
7.049765006E0,2.684503317E0,-8.772642016E-1,-4.886421680E0
7.065765006E0,1.702104926E0,-5.966273785E0,1.932944298E0
7.081765006E0,2.184766531E0,-1.353818512E1,6.447536945E0
7.097763444E0,3.211697102E0,-1.579103374E1,8.289731026E0
7.113763444E0,7.381400585E0,-1.980465508E1,6.661416054E0
7.129763444E0,7.369582653E0,-2.129055214E1,8.460592270E0
7.145763444E0,5.317675114E0,-2.107807159E1,8.492319107E0
7.161765006E0,3.300924063E0,-1.516959476E1,6.633595467E0
7.177765006E0,2.140732527E0,-6.200455666E0,5.339998722E0
7.193765006E0,2.723912001E0,-9.908643365E-1,6.121753216E0
7.209763444E0,4.522858143E0,2.473229408E0,6.921263695E0
7.225763444E0,5.916685581E0,8.059668541E0,4.110911369E0
7.241763444E0,5.957070827E0,1.208964539E1,1.714928389E0
7.257765006E0,5.737800121E0,1.181230164E1,1.159674644E0
7.273763444E0,4.761655331E0,8.313339233E0,7.422982901E-2
7.289763444E0,4.283839703E0,4.898450851E0,-1.849760264E-1
7.305763444E0,4.084900856E0,3.075763941E0,1.092598796E0
7.321763444E0,3.635375023E0,2.618662834E0,2.224644184E0
7.337765006E0,2.667792082E0,2.333705187E0,2.753236055E0
7.353763444E0,2.488437414E0,1.701990128E0,3.534071445E0
7.369763444E0,1.981355071E0,9.400880933E-1,4.373698711E0
7.385763444E0,1.416917205E0,6.642664671E-1,3.592040062E0
7.401765006E0,1.613778114E0,7.791115046E-1,2.114989996E0
7.417763444E0,2.361487389E0,3.037379980E-1,7.214208245E-1
7.433763444E0,3.573279142E0,-1.933633924E0,-1.366189003E0
7.449763444E0,4.983224392E0,-5.424581051E0,-4.475806713E0
7.465765006E0,6.154314518E0,-6.433344364E0,-9.148675919E0
7.481763444E0,5.258509636E0,6.229760647E0,-4.973302841E0
7.497763444E0,-1.552180171E0,3.823517227E1,7.210368156E0
7.513763444E0,-5.661434650E0,3.737398911E1,2.091362953E1
7.529763444E0,-5.592453003E0,3.627108383E1,7.918448925E0
7.545763444E0,-1.285743833E0,3.634182739E1,5.056046486E0
7.561763444E0,1.225123501E1,3.629056931E1,1.226834011E1
7.577763444E0,1.652602553E0,3.727984619E1,1.162983513E1
7.593763444E0,-5.122030735E0,2.988165855E1,8.272109985E0
7.609763444E0,-5.145819187E0,2.230835724E1,5.961513996E0
7.625763444E0,-3.251441002E0,1.541492367E1,3.960268021E0
7.641763444E0,2.279375792E-1,9.811074257E0,2.580604792E0
7.657763444E0,4.101602554E0,5.395065308E0,6.277213693E-1
7.673763444E0,5.867719173E0,2.097454786E0,-8.081867099E-1
7.689763444E0,4.713464737E0,-1.030244112E0,-5.912720412E-2
7.705763444E0,3.726067305E0,-2.176836967E0,-9.183199704E-2
7.721763444E0,2.963715315E0,-1.833374262E0,8.144211769E-1
7.737763444E0,2.853773355E0,-5.787647963E-1,2.702584505E0
7.753763444E0,3.239355087E0,1.392802835E0,3.947588444E0
7.769765006E0,4.025687218E0,2.867209673E0,3.437518120E0
7.785763444E0,4.052061558E0,3.432222128E0,1.824103951E0
7.801763444E0,3.685365915E0,4.294728279E0,1.004597425E0
7.817763444E0,3.555485249E0,5.868514061E0,9.589831829E-1
7.833763444E0,3.525299311E0,8.091204643E0,9.758574963E-1
7.849763444E0,2.342994690E0,1.008074760E1,1.079210341E-1
7.865763444E0,8.526901007E-1,1.131040001E1,-2.879554033E-1
7.881763444E0,3.924671412E-1,1.229305744E1,-1.230504751E0
7.897763444E0,5.293388963E-1,9.907081604E0,-2.330324352E-1
7.913763444E0,1.436616778E-1,8.406041861E-1,6.419745445E0
7.929763444E0,2.726899981E-1,-9.603142738E0,6.509681225E0
7.945763444E0,-3.146392822E0,-1.694050980E1,-4.427434444E0
7.961763444E0,-1.669246912E0,-2.188098335E1,-2.172077179E0
7.977763444E0,6.373355389E0,-1.738893318E1,4.501568317E0
7.993763444E0,1.184920120E1,-1.252038193E1,6.273373604E0
8.009763444E0,1.154101944E1,-1.612100220E1,8.384800911E0
8.025763444E0,8.333603859E0,-2.341977501E1,8.569652557E0
8.041763444E0,2.409869432E0,-1.899059677E1,6.289136887E0
8.057763444E0,4.331589639E-1,-1.053572273E1,7.479897976E0
8.073765006E0,2.183703423E0,7.476900816E-1,-1.475479484E0
8.089763444E0,8.822853088E0,7.428135395E0,-1.419646740E0
8.105765006E0,1.208516407E1,5.246193886E0,2.722561836E0
8.121765006E0,1.125670338E1,6.026578903E0,2.773883820E0
8.137765006E0,9.575897217E0,8.694247246E0,2.359935760E0
8.153765006E0,7.917539120E0,1.079363537E1,9.382014871E-1
8.169765006E0,7.520627975E0,8.726635933E0,1.436013460E0
8.185763444E0,6.829604149E0,3.414802074E0,2.879132748E0
8.201765006E0,5.216495991E0,7.422025315E-3,3.693142414E0
8.217763444E0,3.542173624E0,-1.898764729E0,3.299592972E0
8.233763444E0,2.704834938E0,-2.448339462E0,2.159071922E0
8.249763444E0,2.639894724E0,-1.255404472E0,5.326428413E-1
8.265765006E0,3.143117666E0,4.296059906E-1,-6.276351810E-1
8.281765006E0,3.021856070E0,1.318189979E0,-1.230303645E0
8.297765006E0,2.718041420E0,1.635871768E0,-1.158812761E0
8.313763444E0,2.641254663E0,2.369617939E0,-3.843747377E-1
8.329763444E0,2.554804802E0,2.746561050E0,2.074336410E-1
8.345763444E0,2.991430521E0,1.999244571E0,3.533841968E-1
8.361763444E0,2.354553699E0,1.356363147E-1,1.201056004E0
8.377763444E0,1.367778659E0,1.060418797E1,-1.123522162E0
8.393763444E0,-1.809346080E0,2.661655998E1,1.673163891E0
8.409763444E0,2.202608109E0,2.578325462E1,1.083366680E1
8.425763444E0,7.906363010E0,2.656179047E1,8.615726471E0
8.441765006E0,6.528959274E0,3.046031570E1,9.964916229E0
8.457765006E0,4.771988869E0,2.976258087E1,1.221243095E1
8.473765006E0,6.333027363E0,3.189251900E1,1.021192169E1
8.489765006E0,2.035990953E0,3.129865265E1,9.096692085E0
8.505765006E0,-1.752862096E0,2.608944321E1,6.796937466E0
8.521765006E0,-1.927246213E0,2.016664886E1,5.084805489E0
8.537765006E0,-5.910996795E-1,1.472941589E1,3.265624046E0
8.553765006E0,1.325736523E0,9.570897102E0,2.636590481E0
8.569765006E0,3.072699308E0,4.441196442E0,1.299026847E0
8.585765006E0,4.083914280E0,6.049190164E-1,3.221350312E-1
8.601765006E0,3.536772251E0,-2.388944149E0,3.508942202E-2
8.617765006E0,2.662467241E0,-3.596627235E0,2.871701419E-1
8.633765006E0,2.569265604E0,-3.095540047E0,1.624418020E0
8.649765006E0,3.081452370E0,-1.793036819E0,3.250215054E0
8.665765006E0,4.060183048E0,4.466814399E-1,4.412188053E0
8.681765006E0,5.241309643E0,3.315279722E0,4.047627926E0
8.697765006E0,6.358597755E0,5.063918591E0,2.664028406E0
8.713775944E0,7.231284142E0,6.099832058E0,1.612810969E0
8.729765006E0,7.247651100E0,8.692331314E0,9.577764273E-1
8.745765006E0,6.718848228E0,1.142236328E1,-4.972182214E-1
8.761765006E0,5.408874989E0,1.226718044E1,-1.405233622E0
8.777765006E0,4.332250595E0,1.153646088E1,-1.994408369E0
8.793765006E0,3.109924316E0,9.528645515E0,-2.365231991E0
8.809765006E0,2.450513363E0,5.538315296E0,-1.780922174E0
8.825765006E0,-1.045500040E-1,-3.075562716E0,6.065461159E0
8.841765006E0,4.856494367E-1,-2.028504753E1,1.112921715E1
8.857765006E0,2.658818245E0,-2.213952827E1,1.016166210E0
8.873765006E0,2.917995691E0,-1.794733810E1,3.605217457E0
8.889765006E0,6.015977383E0,-1.352019119E1,4.638640881E0
8.905765006E0,6.236042976E0,-1.470036983E1,4.054609299E0
8.921765006E0,3.762574196E0,-1.621170425E1,6.555525303E0
8.937765006E0,3.755353212E0,-1.186596107E1,6.062051773E0
8.953765006E0,5.631143093E0,-5.731786251E0,4.568376541E0
8.969765006E0,6.819691658E0,-1.458356023E0,4.524093151E0
8.985765006E0,7.766952991E0,-3.280726671E-1,4.741017342E0
9.001765006E0,8.408484459E0,1.090491772E0,4.428478241E0
9.017765006E0,8.700634956E0,4.209351540E0,2.927457571E0
9.033765006E0,8.575073242E0,7.367580891E0,1.261734724E0
9.049765006E0,6.999534607E0,8.082155228E0,-1.467166692E-1
9.065765006E0,4.385555267E0,5.655535221E0,-6.653103828E-1
9.081765006E0,1.699136257E0,2.115756035E0,-1.317768544E-2
9.097765006E0,-7.703295946E-1,-7.987630963E-1,1.405520916E0
9.113765006E0,-1.593073130E0,-1.580115557E0,2.298864603E0
9.129765006E0,-1.980723023E0,-3.807642460E-1,2.536982536E0
9.145765006E0,-1.693888187E0,1.589213610E0,2.167738914E0
9.161765006E0,-1.118072987E0,3.626631260E0,1.514533639E0
9.177765006E0,9.626606107E-2,4.669440269E0,6.655018926E-1
9.193765006E0,2.879353285E0,4.408309460E0,1.064078957E-1
9.209765006E0,7.088905811E0,2.492526770E0,2.690604031E-1
9.225765006E0,1.090561676E1,-3.886249065E0,2.992435932E0
9.241765006E0,1.627028656E1,3.255261898E0,-9.926456213E-1
9.257765006E0,1.232951641E1,2.434568977E1,-1.877216935E0
9.273765006E0,1.532164574E0,3.630396271E1,6.924385548E0
9.289765006E0,-1.165725327E1,3.318009186E1,8.050933838E0
9.305765006E0,-1.565507221E1,3.486299515E1,-3.842483044E0
9.321765006E0,-3.115804434E0,3.607440186E1,6.611022949E0
9.337765006E0,3.904445171E0,3.601396561E1,1.109784317E1
9.353765006E0,1.353135705E0,3.041348648E1,8.178822517E0
9.369765006E0,-4.550898820E-2,2.297000885E1,5.452832699E0
9.385765006E0,6.241204962E-2,1.679856300E1,3.499240637E0
9.401765006E0,1.088442326E0,1.127273464E1,3.056160212E0
9.417765006E0,3.205079556E0,7.016418934E0,5.971713662E-1
9.433765006E0,4.004953384E0,2.464619875E0,-1.995040476E-1
9.449765006E0,3.670655966E0,-1.432067752E0,-8.285757303E-1
9.465765006E0,3.058161736E0,-3.431867838E0,-8.067501783E-1
9.481765006E0,2.320910454E0,-3.513280392E0,2.378495783E-1
9.497765006E0,2.326991796E0,-1.958667755E0,2.183013916E0
9.513765006E0,3.560283184E0,5.050999522E-1,3.874881268E0
9.529765006E0,4.794723988E0,2.275746107E0,4.205664158E0
9.545765006E0,4.841736794E0,3.404564381E0,3.337287426E0
9.561765006E0,4.860880852E0,4.103642464E0,2.335314035E0
9.577765006E0,5.207302570E0,5.729947090E0,2.101457834E0
9.593765006E0,5.767708302E0,8.423873901E0,2.021185160E0
9.609765006E0,5.763830185E0,1.104358101E1,9.968593717E-1
9.625765006E0,5.251451492E0,1.325660801E1,-4.628566504E-1
9.641765006E0,3.267434120E0,1.249687099E1,-2.011273146E0
9.657765006E0,1.028108478E0,8.686823845E0,-5.845874548E-1
9.673765006E0,-5.836585164E-1,1.496816635E0,2.253853559E0
9.689765006E0,-5.158067942E-1,-1.126852989E1,3.718070745E0
9.705763444E0,1.776813745E0,-2.303893280E1,-3.415568113E0
9.721763444E0,2.252752304E0,-2.634551811E1,7.780954361E0
9.737763444E0,7.033973217E0,-1.738646317E1,7.176743984E0
9.753763444E0,1.332735252E1,-1.559850216E1,6.410053730E0
9.769763444E0,1.013137150E1,-2.198274612E1,6.505352497E0
9.785763444E0,6.558685780E0,-1.879086304E1,7.006468296E0
9.801763444E0,5.361527443E0,-1.075145054E1,5.377156734E0
9.817763444E0,5.387499332E0,-3.059483290E0,4.849005222E0
9.833763444E0,6.163403034E0,3.963840380E-2,5.029231548E0
9.849763444E0,5.862499714E0,9.430186152E-1,6.214504719E0
9.865765006E0,5.181138515E0,5.747539520E0,2.852279425E0
9.881763444E0,4.462513924E0,1.171042347E1,-8.788156509E-1
9.897763444E0,3.968762636E0,1.112264729E1,-1.793458104E0
9.913763444E0,3.452342987E0,5.429972649E0,-1.320277691E0
9.929763444E0,2.581591129E0,1.258976579E0,3.759854436E-1
9.945765006E0,1.143576026E0,1.088317871E0,2.005948305E0
9.961765006E0,-5.143032670E-1,4.236922741E0,1.989409208E0
9.977765006E0,-1.836841106E0,5.069616795E0,2.285667658E0
9.993765006E0,-2.559545279E0,3.678135395E0,2.688745737E0
1.000976344E1,-2.107012510E0,3.382078171E0,2.665215731E0
1.002576344E1,-1.579694152E-1,4.202044487E0,2.684599161E0
1.004176344E1,2.208756447E0,3.728605270E0,3.216064215E0
1.005776344E1,5.558962822E0,-2.455110103E-1,4.151967049E0
1.007376344E1,7.769098282E0,-1.137803268E1,5.821836472E0
1.008976344E1,1.614098930E1,-9.320062637E0,-2.559401512E0
1.010576501E1,1.772309685E1,4.903037846E-1,-6.412266254E0
1.012176501E1,4.596110821E0,1.402867222E1,-5.507621169E-1
1.013776344E1,-2.009862518E1,3.879079819E1,1.332311916E1
1.015376344E1,-1.229302788E1,2.847661591E1,-9.804064035E-1
1.016976501E1,-4.019155979E0,3.271699524E1,4.303730965E0
1.018576501E1,4.118429184E0,3.388794327E1,1.210506439E1
1.020176344E1,8.126111984E0,3.918976974E1,1.236746025E1
1.021776344E1,3.320288658E0,3.877031326E1,1.148995590E1
1.023376501E1,-2.030225515E0,3.027985191E1,1.051094723E1
1.024976501E1,1.234661102E0,2.267731285E1,5.763054371E0
1.026576501E1,5.578461647E0,1.579045010E1,3.744387627E0
1.028176501E1,6.664739132E0,9.237519264E0,3.562696457E0
1.029776501E1,5.421228886E0,4.072479725E0,2.152942896E0
1.031376501E1,2.939514637E0,-2.557869256E-1,2.116005182E0
1.032976501E1,1.222805023E0,-3.106218100E0,1.144418836E0
1.034576501E1,8.301271796E-1,-3.995568275E0,9.382301569E-1
1.036176501E1,1.546769142E0,-3.248299599E0,2.007672310E0
1.037776344E1,2.724084377E0,-4.609221518E-1,3.075486183E0
1.039376344E1,4.241060257E0,3.174558163E0,3.298434258E0
1.040976501E1,5.612640858E0,5.389855385E0,2.865370989E0
1.042576501E1,5.371334076E0,5.769211769E0,1.629972577E0
1.044176501E1,4.599702358E0,6.194231033E0,9.906727672E-1
1.045776501E1,4.587922573E0,7.589446545E0,1.065812349E0
1.047376501E1,4.256546021E0,8.716062546E0,3.363182843E-1
1.048976501E1,3.455877066E0,9.108481407E0,-2.009214088E-2
1.050576501E1,2.033414602E0,9.010885239E0,-8.748508692E-1
1.052176501E1,1.244755030E0,8.378413200E0,-1.820522189E0
1.053776501E1,1.279403925E0,6.738107204E0,-2.769526482E0
1.055376501E1,1.252311110E0,4.165604591E0,-2.373783827E0
1.056976501E1,4.034613073E-1,-4.845509529E0,3.872496843E0
1.058576501E1,9.057743847E-2,-1.497529125E1,-1.968464732E0
1.060176344E1,1.490850210E0,-1.951445961E1,-4.044371605E0
1.061776344E1,1.850028396E0,-2.145658684E1,5.040436268E0
1.063376344E1,5.602509022E0,-1.909473610E1,2.765686035E0
1.064976344E1,1.144813347E1,-2.170753670E1,5.309583187E0
1.066576344E1,1.381226444E1,-2.697312546E1,7.224580288E0
1.068176344E1,1.104619503E1,-2.109619141E1,5.985494614E0
1.069776501E1,7.708333492E0,-1.140843868E1,4.757135391E0
1.071376344E1,5.868054390E0,-2.413661957E0,3.417990923E0
1.072976501E1,5.771376610E0,2.138079643E0,5.542672634E0
1.074576501E1,4.956160069E0,1.482135415E0,7.811159611E0
1.076176501E1,5.486495018E0,5.957722187E0,4.421564102E0
1.077776344E1,4.869739056E0,9.288477898E0,1.514505029E0
1.079376344E1,3.983951569E0,8.643431664E0,9.242384434E-1
1.080976501E1,3.571392298E0,3.895423651E0,8.226189613E-1
1.082576344E1,2.574370146E0,3.889811635E-1,4.825082719E-1
1.084176344E1,1.942952156E0,1.760025471E-1,-7.518271804E-1
1.085776344E1,5.727696419E-1,1.094313025E0,7.133763283E-2
1.087376344E1,-9.989471436E-1,1.151582241E0,1.002940655E0
1.088976344E1,-1.951925635E0,8.337184787E-1,8.372140527E-1
1.090576344E1,-2.308527470E0,9.884318113E-1,1.250443608E-1
1.092176344E1,-2.095405340E0,1.711394548E0,-5.039123893E-1
1.093776344E1,-1.635881305E0,2.093844175E0,-5.080879331E-1
1.095376501E1,1.820263714E-1,1.544671893E0,3.299784660E-1
1.096976344E1,3.187352896E0,2.016875520E-2,1.950556159E0
1.098576344E1,5.724670410E0,-3.805056810E0,3.161715746E0
1.100176344E1,1.238718796E1,-2.223188639E0,-2.016339302E0
1.101776344E1,2.061688232E1,1.294476891E1,-5.248626232E0
1.103376344E1,7.924989700E0,2.475893784E1,2.263114214E0
1.104976344E1,-6.706025124E0,2.835655022E1,1.149808693E1
1.106576344E1,-1.540662098E1,3.449116898E1,-2.053363174E-1
1.108176344E1,-9.692695618E0,3.816855621E1,6.652050018E-1
1.109776344E1,3.555178881E0,4.054906082E1,9.830620766E0
1.111376344E1,7.128256798E0,4.004506302E1,1.052936459E1
1.112976344E1,5.361766815E-1,3.344315720E1,9.217666626E0
1.114576344E1,-1.413651586E0,2.588626099E1,6.153510094E0
1.116176501E1,-5.861005932E-2,1.969439697E1,5.706091404E0
1.117776501E1,2.708838224E0,1.431721115E1,3.920447826E0
1.119376344E1,4.339040756E0,8.591036797E0,2.698045254E0
1.120976344E1,4.373899937E0,4.379789352E0,1.728536963E0
1.122576344E1,2.407580614E0,1.820742488E-1,1.280217886E0
1.124176344E1,1.034927249E0,-2.254476070E0,-4.501099288E-1
1.125776501E1,1.026403785E0,-3.338187456E0,-1.767782718E-1
1.127376344E1,1.144964695E0,-3.121291876E0,1.113753915E0
1.128976501E1,1.459830880E0,-1.340178370E0,2.436138391E0
1.130576344E1,2.616632462E0,1.461822987E0,2.984698057E0
1.132176344E1,4.311516762E0,4.356192589E0,2.251919270E0
1.133776344E1,5.210165977E0,6.334904194E0,1.370421886E0
1.135376344E1,5.167664051E0,7.014867306E0,1.135129213E0
1.136976344E1,4.408070087E0,8.167205811E0,1.277613044E0
1.138576344E1,3.217519760E0,9.203435898E0,7.207505107E-1
1.140176344E1,2.266197920E0,8.845368385E0,1.140406206E-1
1.141776501E1,1.871212244E0,6.324379444E0,3.601645529E-1
1.143376344E1,1.528429747E0,8.167962432E-1,3.984344244E0
1.144976344E1,2.755573034E0,-3.131213665E0,2.590669870E0
1.146576344E1,3.268794060E0,-2.024240017E0,-2.568451643E0
1.148176344E1,9.728311896E-1,-4.331053257E0,-4.390228748E0
1.149776344E1,-2.387632132E0,-1.013763332E1,1.203220487E0
1.151376344E1,3.917143822E0,-1.323647881E1,4.450753689E0
1.152976344E1,7.842801094E0,-1.807666397E1,9.152754784E0
1.154576344E1,6.695404530E0,-2.243754959E1,9.066200256E0
1.156176344E1,8.317676544E0,-2.482194328E1,1.089234352E1
1.157776344E1,9.395029068E0,-2.174688911E1,8.238352776E0
1.159376344E1,7.503523827E0,-1.394591808E1,5.560753822E0
1.160976344E1,5.462553024E0,-6.872106075E0,5.285841942E0
1.162576344E1,4.602268696E0,-1.477203250E0,5.855748177E0
1.164176344E1,5.166533947E0,1.057719946E0,6.868638992E0
1.165776344E1,5.067854404E0,4.695354939E0,4.429541588E0
1.167376344E1,4.533258438E0,8.853815079E0,2.102645397E0
1.168976344E1,4.120957375E0,1.118663979E1,-1.500398219E-1
1.170576344E1,4.252485275E0,8.891777039E0,-1.354955316E0
1.172176344E1,3.684944630E0,4.825829506E0,-1.098086357E0
1.173776344E1,2.653896093E0,2.188060999E0,7.311317325E-1
1.175376344E1,1.271656275E0,1.216225743E0,2.074106455E0
1.176976344E1,-1.241920292E-1,1.928941250E0,2.339652061E0
1.178576344E1,-1.365346193E0,3.196795702E0,2.506269455E0
1.180176344E1,-1.832129240E0,3.857125998E0,2.491511822E0
1.181776501E1,-1.107423544E0,3.726153612E0,2.073895693E0
1.183376344E1,6.772526503E-1,2.522741795E0,1.847615004E0
1.184976344E1,2.391012669E0,2.243175507E-1,1.835739732E0
1.186576344E1,3.384721279E0,-2.485497236E0,1.798916936E0
1.188176344E1,3.842980862E0,-4.512390137E0,1.021107793E0
1.189776344E1,1.043345213E0,-6.007971764E0,-3.574916840E0
1.191376344E1,6.281532764E0,2.674083948E0,-2.467875957E0
1.192976344E1,1.269364548E1,2.933225632E1,1.641541243E0
1.194576344E1,-3.529522419E0,2.865055084E1,1.897482491E1
1.196176344E1,-5.818331718E0,2.870347023E1,4.391148090E0
1.197776344E1,-5.825628757E0,3.173435783E1,1.421169400E0
1.199376344E1,3.282747269E0,3.258675385E1,9.837267876E0
1.200976344E1,2.529550791E0,3.616856384E1,1.008278847E1
1.202576344E1,-1.544585705E0,3.402532196E1,1.013768196E1
1.204176344E1,-1.559899092E0,3.003496361E1,9.927059174E0
1.205776344E1,8.169686198E-1,2.509887695E1,8.344779015E0
1.207376501E1,3.706856251E0,1.867083740E1,5.483890057E0
1.208976501E1,5.395889282E0,1.222998428E1,3.203757763E0
1.210576344E1,6.014291763E0,6.504557610E0,2.310021400E0
1.212176501E1,5.583431721E0,2.360404968E0,8.603515625E-1
1.213776344E1,3.120343924E0,-5.381112099E-1,1.064078927E0
1.215376501E1,6.438295841E-1,-2.107184887E0,6.474974751E-1
1.216976344E1,9.159258008E-2,-1.755964994E0,9.234148264E-1
1.218576501E1,5.525625944E-1,-5.337824821E-1,2.786668777E0
1.220176501E1,1.517349243E0,2.014127016E0,3.940731525E0
1.221776344E1,3.076060772E0,4.639340401E0,3.899963140E0
1.223376344E1,4.251499176E0,4.988807678E0,2.975667000E0
1.224976501E1,3.457658291E0,4.061217308E0,1.438647151E0
1.226576501E1,2.753379822E0,4.062864304E0,5.910517573E-1
1.228176501E1,2.461708546E0,5.545775414E0,1.912488416E-2
1.229776501E1,2.109713078E0,7.745903492E0,-5.701072812E-1
1.231376501E1,2.177852154E0,1.008940506E1,-9.235585332E-1
1.232976501E1,3.793286800E0,1.143508148E1,-3.507984281E-1
1.234576501E1,4.693353653E0,9.924933434E0,-4.540555775E-1
1.236176501E1,2.742385626E0,3.369264364E0,2.646416426E0
1.237776344E1,1.067909673E-1,-6.127202511E0,5.699722767E0
1.239376344E1,-1.017966628E0,-9.160340309E0,-4.592653275E0
1.240976344E1,-3.347026825E0,-1.345326900E1,-4.808725357E0
1.242576501E1,1.806588054E0,-1.992244911E1,6.313777924E0
1.244176344E1,7.499664783E0,-1.872935104E1,3.238885641E0
1.245776344E1,1.082618713E1,-1.924455452E1,6.958297253E0
1.247376344E1,1.285871220E1,-2.409083939E1,9.039260864E0
1.248976344E1,1.100365543E1,-2.434433746E1,7.510266304E0
1.250576501E1,8.589687347E0,-1.769033623E1,6.919817448E0
1.252176501E1,6.013909340E0,-9.492808342E0,5.402765274E0
1.253776501E1,4.663550854E0,-1.316504478E0,4.925801754E0
1.255376501E1,4.653840065E0,1.009835958E0,7.109103203E0
1.256976501E1,4.682301521E0,3.389615059E0,6.465254307E0
1.258576501E1,4.959253311E0,8.206192970E0,3.206381798E0
1.260176501E1,5.733030796E0,1.094214344E1,1.653818786E-1
1.261776501E1,5.099036694E0,7.012252808E0,-9.086474776E-2
1.263376501E1,3.241892815E0,1.033567309E0,4.149534702E-1
1.264976501E1,1.161906123E0,-2.511823893E0,3.147417605E-1
1.266576501E1,-1.786610723E0,-2.710858822E0,-6.445382833E-1
1.268176501E1,-4.285237789E0,1.141296744E0,-2.099992752E0
1.269776501E1,-5.139278412E0,5.213019848E0,-1.869478941E0
1.271376501E1,-4.111753941E0,6.684189796E0,-3.758800924E-1
1.272976344E1,-2.805812836E0,6.336474895E0,4.682962596E-1
1.274576344E1,-1.238549352E0,5.240055084E0,6.990782022E-1
1.276176501E1,4.391827583E-1,3.849253893E0,2.031815290E0
1.277776344E1,2.448272467E0,2.184881449E0,3.939630032E0
1.279376501E1,7.308185577E0,-2.007873356E-1,4.670455456E0
1.280976501E1,1.060185051E1,-4.863409042E0,3.192677498E0
1.282576501E1,2.141527176E1,-1.044063449E0,-2.675338268E0
1.284176501E1,2.032528687E1,1.149779034E1,-2.739301920E0
1.285776501E1,2.318200111E0,2.776265717E1,-3.201727629E0
1.287376501E1,-1.307639217E1,2.576853561E1,1.037388515E1
1.288976501E1,-1.364592457E1,3.485233688E1,-2.553502083E0
1.290576501E1,-9.514164925E0,3.649957657E1,1.674016237E0
1.292176501E1,-1.329203367E0,4.007099533E1,8.536669731E0
1.293776501E1,2.798630476E0,3.990007782E1,9.811831474E0
1.295376501E1,-4.812824428E-1,3.516979599E1,7.902196884E0
1.296976501E1,9.035908580E-1,2.629961586E1,5.976042271E0
1.298576501E1,3.330133438E0,1.862673569E1,4.774219990E0
1.300176344E1,4.703198910E0,1.223969555E1,3.754836082E0
1.301776501E1,5.547403812E0,7.242881298E0,1.681208372E0
1.303376344E1,4.979987144E0,3.650506258E0,3.865965307E-1
1.304976344E1,3.668271303E0,3.733039200E-1,-4.221552014E-1
1.306576344E1,3.344239950E0,-1.191891074E0,-4.615637958E-1
1.308176344E1,2.826153994E0,-1.728383780E0,9.890639186E-1
1.309782438E1,2.963159800E0,-6.227605939E-1,2.648236036E0
1.311376344E1,3.536417961E0,1.008092999E0,3.552085400E0
1.312976344E1,4.241806984E0,2.387469292E0,3.569955826E0
1.314576344E1,4.982257366E0,3.180390358E0,2.897280931E0
1.316176501E1,4.442786217E0,3.480824471E0,1.820732951E0
1.317776501E1,4.050634861E0,4.612956047E0,1.007834435E0
1.319376344E1,3.598925829E0,7.253224373E0,6.027450562E-1
1.320976344E1,3.450408459E0,1.049636269E1,-1.032571346E-1
1.322576344E1,3.530547380E0,1.205072594E1,-8.569518328E-1
1.324176344E1,2.465568066E0,1.153161526E1,-1.449459195E0
1.325776501E1,1.666651726E0,1.108877373E1,-9.617125392E-1
1.327376344E1,1.636465549E0,9.279208183E0,-1.956407547E0
1.328976344E1,4.659403563E-1,2.411439896E0,-5.992208123E-1
1.330576344E1,-3.029172659E0,-9.575025558E0,-1.152645230E0
1.332176344E1,-3.069088936E0,-1.925849724E1,-3.814279318E0
1.333776501E1,-1.718462259E-1,-2.689060211E1,6.903355122E0
1.335376344E1,8.297086716E0,-2.110412025E1,3.204955101E0
1.336976344E1,1.521026802E1,-1.714088440E1,3.165240049E0
1.338576344E1,1.198370743E1,-2.470170784E1,4.921865940E0
1.340176344E1,7.856046200E0,-2.731987190E1,5.603686333E0
1.341776344E1,6.398494720E0,-1.721579552E1,4.380297184E0
1.343376501E1,3.991153240E0,-9.481823921E0,5.405341148E0
1.344976501E1,3.471448660E0,-3.232708454E0,5.864529610E0
1.346576501E1,4.100386143E0,2.357877016E0,5.682475090E0
1.348176501E1,4.605591774E0,7.247277260E0,3.929220200E0
1.349776501E1,5.093673706E0,1.049738693E1,1.999263763E0
1.351376501E1,4.527425766E0,8.514863014E0,1.385553241E0
1.352976501E1,3.294555664E0,4.567275047E0,1.354256272E-1
1.354576501E1,1.623393297E0,1.368793845E0,-2.092628032E-1
1.356176501E1,1.775827259E-1,3.317022622E-1,1.402140409E-1
1.357776344E1,-5.876902938E-1,1.637298822E0,4.648486376E-1
1.359376344E1,-1.207922578E0,3.116216421E0,1.256189704E0
1.360976344E1,-1.799252152E0,3.568538666E0,2.255491257E0
1.362576344E1,-1.819918990E0,3.337996006E0,2.488935471E0
1.364176344E1,-1.093134999E0,2.450877190E0,2.227737665E0
1.365776344E1,6.847416759E-1,1.073196173E0,1.517406702E0
1.367376344E1,2.877811193E0,-1.432862639E0,5.036538243E-1
1.368976344E1,4.645479202E0,-3.982955456E0,-6.401903629E-1
1.370576344E1,7.237259865E0,-4.650363445E0,-5.538851738E0
1.372176344E1,1.198624516E1,-2.204178810E0,-4.881155014E0
1.373776501E1,1.414917660E1,6.868179321E0,9.525091946E-2
1.375376344E1,4.526219368E0,2.929996300E1,1.052053452E1
1.376976344E1,-1.115595531E1,3.196247864E1,8.483537674E0
1.378576344E1,-9.648604393E0,3.425285721E1,-3.386674881E0
1.380176344E1,-3.768234015E0,3.486000824E1,7.723819256E0
1.381776344E1,2.188032150E0,3.805831528E1,1.044200420E1
1.383376501E1,4.129902124E-1,4.008919144E1,1.024476051E1
1.384976501E1,-2.104896069E0,3.553606415E1,7.481410980E0
1.386576344E1,-9.524038434E-1,2.786799049E1,7.076733589E0
1.388176344E1,2.033280611E0,2.134055519E1,5.237010002E0
1.389776344E1,4.762977123E0,1.388404274E1,4.068352222E0
1.391376501E1,6.072681904E0,7.310627937E0,2.695459127E0
1.392976501E1,5.797166824E0,2.850258827E0,8.936118335E-2
1.394576501E1,4.261554718E0,-1.577750206E0,-5.892130136E-1
1.396176501E1,3.625328779E0,-3.063084126E0,-9.165770411E-1
1.397776344E1,3.127507210E0,-2.524178267E0,-1.753226072E-1
1.399376344E1,3.136164904E0,-5.803353190E-1,1.809614301E0
1.400976344E1,3.416209698E0,2.002366781E0,3.611385107E0
1.402576501E1,3.963706255E0,3.614420891E0,3.707124472E0
1.404176344E1,4.047953606E0,3.936450720E0,2.242744446E0
1.405776344E1,3.188636303E0,4.078713894E0,9.590501785E-1
1.407376344E1,2.659641981E0,4.528201580E0,6.069205403E-1
1.408976344E1,3.030781746E0,5.296452999E0,5.568817258E-1
1.410576344E1,3.038366556E0,7.210052013E0,2.600581944E-1
1.412176344E1,3.000174046E0,8.725103378E0,-3.837043345E-1
1.413776344E1,2.606375694E0,8.372446060E0,-2.551069856E-1
1.415376501E1,5.686516166E-1,8.138533592E0,1.675768852E0
1.416976344E1,9.285863638E-1,8.929787636E0,1.122928500E0
1.418576501E1,2.496711969E0,6.820630550E0,6.023619771E-1
1.420176501E1,1.661125898E0,-2.849310875E0,4.148260593E0
1.421776344E1,-2.544997931E0,-1.653956604E1,-1.665751457E0
1.423376344E1,-3.252235651E0,-2.763178825E1,-1.943737388E0
1.424976344E1,6.489857197E0,-2.442095375E1,7.409996510E0
1.426576344E1,1.247325516E1,-1.722793770E1,6.164628983E0
1.428176344E1,1.236744022E1,-2.471063232E1,7.152667999E0
1.429776344E1,5.224157810E0,-2.981443787E1,6.525980949E0
1.431376344E1,3.108315468E0,-2.032133293E1,6.717766285E0
1.432976501E1,2.534482718E0,-9.174935341E0,3.454344749E0
1.434576344E1,2.668318510E0,7.459853292E-1,3.630806923E0
1.436176344E1,4.832983494E0,1.739176869E0,6.958488941E0
1.437776344E1,6.102073193E0,5.458798885E0,4.336588860E0
1.439376344E1,6.284367561E0,1.062507439E1,2.693113089E0
1.440976501E1,6.218575001E0,1.061570835E1,1.769228935E0
1.442576344E1,5.079605579E0,7.570360184E0,-9.961602688E-1
1.444176344E1,3.849656105E0,3.078081608E0,-1.339795291E-1
1.445776344E1,1.998564720E0,-2.610254586E-1,1.193816066E0
1.447376344E1,2.844694853E-1,-1.396097302E0,1.661288738E0
1.448976344E1,-1.055804729E0,-7.173411250E-1,1.020102262E0
1.450576344E1,-2.481436729E0,1.105115652E0,-7.573339343E-2
1.452176344E1,-3.543064117E0,2.606021404E0,-5.870773792E-1
1.453776501E1,-3.480757475E0,2.999005795E0,-1.072238445E0
1.455376344E1,-2.006360292E0,2.377470970E0,-1.042923808E0
1.456976344E1,2.811558843E-1,1.380247712E0,-1.599135101E-1
1.458576344E1,2.814077616E0,-2.436052412E-1,2.950135171E-1
1.460176501E1,5.569449425E0,-3.751599073E0,7.039144039E-1
1.461776501E1,7.612029076E0,-7.342528343E0,-8.470110893E-1
1.463376344E1,1.732329559E1,3.052530527E0,-2.003314734E0
1.464976344E1,1.451138115E1,2.001627350E1,-4.339174271E0
1.466576344E1,-1.007196617E1,3.558056641E1,1.141824532E1
1.468176344E1,-1.816965485E1,3.630918884E1,-7.701668143E-2
1.469776344E1,-1.028512669E1,4.212243271E1,1.096573114E0
1.471376344E1,3.501194239E0,3.693493652E1,1.072866726E1
1.472976344E1,6.318738937E0,4.086786270E1,1.070167923E1
1.474576344E1,-2.861023188E0,3.964866638E1,8.333507538E0
1.476176344E1,-7.993684292E0,3.162511444E1,6.930514812E0
1.477776344E1,-6.088885784E0,2.504955482E1,4.092514515E0
1.479376344E1,-2.228072643E0,1.907291031E1,1.611383915E0
1.480976344E1,2.884955645E0,1.303560448E1,8.597386479E-1
1.482576344E1,6.081119061E0,7.481219769E0,-7.028418779E-2
1.484176344E1,5.350035191E0,2.586092234E0,9.290460497E-2
1.485776501E1,4.499461651E0,-1.066951990E0,-1.075188071E-1
1.487376344E1,3.288024187E0,-2.892607450E0,-4.713416994E-1
1.488976344E1,3.003401518E0,-3.128455639E0,5.722525120E-1
1.490576344E1,3.468058586E0,-1.576476455E0,2.277163506E0
1.492176344E1,4.414907932E0,5.860909820E-1,3.203671694E0
1.493776501E1,5.146365166E0,2.041775227E0,3.050203323E0
1.495376501E1,4.262885571E0,3.262147665E0,2.108046532E0
1.496976501E1,2.890433550E0,4.180687904E0,1.074900746E0
1.498576344E1,1.919306993E0,5.429398537E0,1.088049769E0
1.500176344E1,1.826134324E0,7.893692493E0,5.589215755E-1
1.501776501E1,1.495064139E0,9.722019196E0,-5.852386355E-2
1.503376344E1,6.460992694E-1,8.921255112E0,-1.987283230E-1
1.504976344E1,-7.015968561E-1,8.158270836E0,1.403097957E-1
1.506576344E1,-9.128324986E-1,8.825170517E0,-9.950302541E-3
1.508176344E1,8.000656366E-1,6.559106827E0,1.959989369E-1
1.509776501E1,6.771951914E-1,-9.771215916E-1,7.991940975E-1
1.511376344E1,-8.437358141E-1,-8.167685509E0,-1.860658646E0
1.512976344E1,-2.998986483E0,-1.813987923E1,1.900900453E-1
1.514576344E1,4.822018147E-1,-2.191724014E1,4.870275497E0
1.516176344E1,8.864034653E0,-1.851150703E1,3.801637888E0
1.517776344E1,1.410614872E1,-1.820744324E1,4.132736683E0
1.519376344E1,1.076903343E1,-2.507609367E1,4.621996403E0
1.520976344E1,8.658601761E0,-2.807585526E1,4.104293823E0
1.522576344E1,7.667344570E0,-1.951089668E1,4.020898819E0
1.524176344E1,5.817881584E0,-1.112543392E1,4.400361061E0
1.525776344E1,3.307292700E0,-4.157454491E0,4.098384857E0
1.527376344E1,1.759498835E0,6.724354625E-1,4.921224117E0
1.528976344E1,1.758167624E0,6.776912689E0,4.080581665E0
1.530576344E1,1.893746495E0,1.277227116E1,1.900708914E0
1.532176344E1,2.683182001E0,1.283246136E1,7.904121876E-1
1.533776501E1,2.686313391E0,7.412937164E0,-1.038346052E0
1.535376344E1,1.667475343E0,3.898172140E0,-2.090138197E0
1.536976344E1,3.953018486E-1,3.128647089E0,1.226310134E-1
1.538576344E1,-8.508035541E-1,4.692165852E0,2.500236034E0
1.540176501E1,-1.433111668E0,5.429895878E0,3.875513315E0
1.541776501E1,-1.701999664E0,4.316774368E0,3.837608337E0
1.543376501E1,-1.302484035E0,3.030858040E0,3.282306910E0
1.544976344E1,-7.008306682E-2,2.556423426E0,2.680586338E0
1.546576344E1,1.734551311E0,2.030618191E0,1.994264603E0
1.548176344E1,4.492470741E0,1.802929640E0,5.930533409E-1
1.549776501E1,8.288505554E0,2.709278464E-1,-4.185160100E-1
1.551376344E1,1.032442951E1,-4.705765247E0,-3.183330595E-2
1.552976344E1,1.642792892E1,-4.597661972E0,-3.697241306E0
1.554576344E1,1.835126877E1,1.069800186E1,-5.738996983E0
1.556176344E1,1.401422024E0,3.109412003E1,-9.747369885E-1
1.557776501E1,-1.636573792E1,3.159353065E1,1.054261780E1
1.559376344E1,-1.120676994E1,3.454833984E1,-4.273784161E0
1.560976344E1,-5.249258518E0,3.566149902E1,3.403415203E0
1.562576501E1,2.112547755E-1,3.792785263E1,7.573827267E0
1.564176501E1,3.314915895E-1,3.866583252E1,9.361194611E0
1.565776501E1,-2.903007746E0,3.412938309E1,6.288868427E0
1.567376344E1,-1.632270962E-1,2.537870026E1,4.356029987E0
1.568976344E1,4.268995762E0,1.894400597E1,3.108631611E0
1.570576344E1,6.985255718E0,1.300383854E1,2.410396099E0
1.572176344E1,7.185324669E0,7.581651211E0,1.634962082E0
1.573776344E1,5.788355827E0,3.749137878E0,8.266412616E-1
1.575376501E1,3.606491566E0,1.091468632E-1,5.022556186E-1
1.576976501E1,2.334260464E0,-1.668911815E0,1.763664633E-1
1.578576501E1,2.000901461E0,-2.156984091E0,8.622094989E-1
1.580176501E1,2.208172083E0,-1.148661375E0,2.117115974E0
1.581776344E1,2.483955622E0,8.312572837E-1,2.362866402E0
1.583376501E1,3.299219370E0,2.725501776E0,1.975953817E0
1.584976501E1,3.722523928E0,3.809912443E0,1.353020906E0
1.586576501E1,3.248711348E0,3.830550194E0,5.807854533E-1
1.588176501E1,2.682473183E0,4.085360527E0,7.690941691E-1
1.589776501E1,2.467837572E0,5.489138126E0,7.250887156E-1
1.591376501E1,1.959998846E0,7.611205578E0,5.428421497E-1
1.592976501E1,1.835567355E0,9.098292351E0,1.360327959E0
1.594576501E1,2.054847717E0,1.065771198E1,1.340120792E0
1.596176501E1,2.726851940E0,1.187523079E1,3.608061969E-1
1.597776501E1,4.076195240E0,1.254993629E1,-1.847490430E0
1.599376501E1,3.039812565E0,7.658227444E0,-5.968936086E-1
1.600976501E1,-6.627054214E-1,-5.669220924E0,5.964770317E0
1.602576501E1,-1.875828266E0,-2.561750793E1,3.372587442E0
1.604176501E1,5.318077564E0,-2.993948174E1,1.776133776E0
1.605776501E1,8.403599739E0,-2.020125008E1,8.782698631E0
1.607376501E1,1.207734966E1,-1.526224136E1,8.980918884E0
1.608976501E1,1.024776745E1,-2.394028282E1,7.027116299E0
1.610576501E1,5.398809910E0,-2.392507553E1,7.643230438E0
1.612176501E1,4.682043552E0,-1.454980278E1,5.704339027E0
1.613776501E1,4.574648857E0,-3.863408566E0,4.585490227E0
1.615376501E1,7.082134724E0,2.436196089E0,5.189106464E0
1.616976501E1,7.828455448E0,2.789091825E0,6.528834820E0
1.618576501E1,7.102629185E0,5.564919472E0,4.692405224E0
1.620176501E1,6.864626408E0,9.663017273E0,2.119778395E0
1.621776501E1,6.934881687E0,1.091415977E1,-6.746094227E-1
1.623376501E1,5.650516987E0,6.552872658E0,-3.156707287E-1
1.624976501E1,2.765561581E0,1.158841610E0,1.110373259E0
1.626576501E1,1.047511175E-1,-2.152626753E0,1.962460041E0
1.628176501E1,-1.584233642E0,-2.253164053E0,6.407362819E-1
1.629776501E1,-2.808647633E0,-6.683940887E-1,1.522808075E-1
1.631376501E1,-3.724276543E0,4.205654562E-1,2.766547799E-1
1.632976501E1,-3.570329428E0,1.421629071E0,2.725654840E-1
1.634576501E1,-1.737625360E0,2.618318081E0,2.091191560E-1
1.636176501E1,7.557920218E-1,2.819248915E0,6.198204756E-1
1.637776501E1,2.866577625E0,7.178870440E-1,1.402140260E0
1.639376501E1,4.828511238E0,-2.766950130E0,1.373812079E0
1.640976501E1,4.642462254E0,-6.896411419E0,-5.580692887E-1
1.642576501E1,7.335460663E0,-1.197100803E-2,-2.646559954E0
1.644176501E1,9.507498741E0,1.646094131E1,-6.307639122E0
1.645776501E1,-1.378418565E0,2.958864594E1,3.986546993E0
1.647376501E1,-1.509863091E1,2.200620842E1,1.197017574E1
1.648976501E1,-1.371512699E1,3.956643295E1,-7.326161265E-1
1.650576501E1,-4.536705494E0,3.791283417E1,7.554271698E0
1.652176501E1,3.387479544E0,4.182973099E1,1.115250778E1
1.653776501E1,-2.234699965E0,4.179869080E1,9.401665688E0
1.655376501E1,-7.678635597E0,3.592561722E1,7.565639019E0
1.656976501E1,-6.268517971E0,2.599863625E1,5.221552849E0
1.658576501E1,-3.159197092E0,1.820095062E1,2.914116859E0
1.660176501E1,7.121025920E-1,1.192445564E1,1.956407547E0
1.661776344E1,3.807441473E0,7.457392693E0,1.833307266E0
1.663376344E1,4.717257500E0,4.274981499E0,6.201652884E-1
1.664976344E1,3.277987719E0,8.303282857E-1,5.120718479E-1
1.666576344E1,2.720416546E0,-1.377661943E0,-5.243014693E-1
1.668176344E1,2.262271643E0,-2.522511721E0,6.211517006E-2
1.669776344E1,2.277728558E0,-1.787520528E0,1.463192344E0
1.671376344E1,2.819325686E0,1.503271312E-1,2.888317108E0
1.672976344E1,3.580930948E0,1.724859476E0,2.995912313E0
1.674576344E1,3.559306383E0,2.147752285E0,2.193701744E0
1.676176501E1,2.633966446E0,2.930828571E0,7.321277261E-1
1.677776344E1,2.347227573E0,3.787416458E0,7.593737245E-1
1.679376501E1,2.384912014E0,5.173122883E0,1.181835413E0
1.680976501E1,2.146334648E0,7.422245502E0,1.330390811E0
1.682576501E1,1.797691107E0,9.700664520E0,6.115461588E-1
1.684176501E1,1.622052431E0,1.246202087E1,-8.139615655E-1
1.685776501E1,1.711308360E0,1.376356602E1,-9.229934812E-1
1.687376501E1,8.988216519E-1,9.597837448E0,3.181032240E-1
1.688976501E1,-1.165822983E0,2.135177851E0,4.017566144E-1
1.690576501E1,-5.218813896E0,-1.196210289E1,4.915391922E0
1.692176501E1,-2.388743013E-1,-2.796788597E1,8.699571341E-2
1.693776501E1,6.062357903E0,-2.503324699E1,4.329798698E0
1.695376501E1,9.282147408E0,-1.521415615E1,5.296117783E0
1.696976501E1,1.355031013E1,-1.545164204E1,6.377032757E0
1.698576501E1,8.586430550E0,-2.590741730E1,5.739984035E0
1.700176501E1,7.169743538E0,-2.469569397E1,5.542806625E0
1.701776501E1,7.096959591E0,-1.528694916E1,4.946094990E0
1.703376501E1,5.994534969E0,-7.540471077E0,3.668184996E0
1.704976501E1,5.688163757E0,-1.085751295E0,3.227920055E0
1.706576501E1,5.195273876E0,1.686140537E0,5.741525173E0
1.708176501E1,6.040312290E0,6.648554802E0,3.466698647E0
1.709776501E1,8.059600830E0,8.073027611E0,2.356852055E0
1.711376501E1,8.085717201E0,6.561654091E0,4.946325123E-1
1.712976501E1,5.795768738E0,4.705084801E0,-1.907843471E0
1.714576501E1,3.019624710E0,3.724439144E0,-2.862574816E0
1.716176501E1,5.548131466E-1,2.282957554E0,-6.196864843E-1
1.717776501E1,-1.819669962E0,3.507409692E-1,2.385381460E0
1.719376501E1,-3.552430153E0,-8.392443061E-1,3.250904560E0
1.720976344E1,-3.803083897E0,-1.565233320E-1,1.968943596E0
1.722576344E1,-3.523144484E0,1.322375059E0,1.153880715E0
1.724176501E1,-2.607707024E0,2.546903849E0,2.672312260E-1
1.725776344E1,-4.864251614E-1,2.658109903E0,-8.887084723E-1
1.727376344E1,2.724764347E0,7.247918844E-1,-2.171655655E0
1.728976344E1,5.616461754E0,-2.755122900E0,-2.097531557E0
1.730576344E1,7.139145374E0,-7.735780716E0,-2.306143045E0
1.732176501E1,1.247270870E1,-2.267472029E0,4.167060256E-1
1.733776344E1,1.568592834E1,2.247107697E1,-4.747117519E0
1.735376501E1,-7.865613461E0,3.169199944E1,1.242854023E1
1.736976501E1,-2.054967117E1,3.516048050E1,4.181233793E-2
1.738576501E1,-9.953760147E0,4.085070419E1,8.649005890E-1
1.740176344E1,3.428324461E0,3.552143097E1,9.310389519E0
1.741776344E1,3.287430525E0,4.204503632E1,1.122712040E1
1.743376344E1,-5.028819561E0,4.012154388E1,8.470944405E0
1.744976344E1,-5.215356350E0,3.199110413E1,6.054888248E0
1.746576344E1,-2.759145021E0,2.399226570E1,4.559900761E0
1.748176344E1,-3.685155138E-2,1.842862129E1,3.008132458E0
1.749776344E1,2.770033836E0,1.279906750E1,2.282440424E0
1.751376344E1,4.661012650E0,7.540997982E0,3.816740811E-1
1.752976344E1,4.740202904E0,2.362550259E0,-9.066362679E-2
1.754576344E1,4.967393875E0,-7.310934663E-1,-8.422418237E-1
1.756176344E1,4.141547203E0,-2.355731726E0,-6.004753709E-1
1.757776657E1,3.850613832E0,-2.563806772E0,7.280192971E-1
1.759376501E1,3.359189510E0,-1.346230865E0,2.038768053E0
1.760976501E1,3.621029139E0,1.780041009E-1,2.501394987E0
1.762576501E1,3.695574760E0,1.380190134E0,2.302561283E0
1.764176501E1,3.553445339E0,2.321370125E0,1.844962239E0
1.765776501E1,2.439787388E0,3.431456089E0,1.401441216E0
1.767376501E1,1.643360853E0,5.316372395E0,1.383657098E0
1.768976501E1,1.324587226E0,8.330911636E0,7.095839381E-1
1.770576501E1,1.152118564E0,1.170837402E1,3.908007443E-1
1.772176501E1,1.857670665E0,1.396586704E1,-4.889343083E-1
1.773776501E1,1.636254907E0,1.425965405E1,-1.699758649E0
1.775376501E1,1.170620918E0,1.192655277E1,-2.065362692E0
1.776976501E1,-8.274744153E-1,5.289988995E0,-9.285576344E-1
1.778576501E1,-3.796658039E0,-7.495747566E0,1.201707244E0
1.780176501E1,-3.070295334E0,-1.843680954E1,-4.126166821E0
1.781776501E1,-7.697262764E-1,-2.480696487E1,-1.852633208E-1
1.783376501E1,2.541512251E0,-2.233507538E1,6.088359356E0
1.784976501E1,1.243809795E1,-1.775067711E1,4.605304241E0
1.786576501E1,1.619379616E1,-1.966262054E1,2.230792761E0
1.788176501E1,1.115725803E1,-2.821152878E1,4.813542366E0
1.789776501E1,9.508323669E0,-2.486716652E1,4.804703236E0
1.791376501E1,8.265043259E0,-1.430742359E1,3.801954031E0
1.792976501E1,5.978187561E0,-6.519430161E0,4.437432766E0
1.794576501E1,4.842263222E0,2.804089189E-1,4.800949097E0
1.796176501E1,5.480136395E0,4.268689632E0,6.340650558E0
1.797776501E1,6.029394627E0,8.764310837E0,3.537883043E0
1.799376501E1,5.306278706E0,9.890523911E0,1.483916640E0
1.800976501E1,3.628067970E0,7.619268894E0,-4.094851017E-1
1.802576501E1,2.277833939E0,5.060125828E0,-3.562897682E0
1.804176501E1,1.131758332E0,2.502821684E0,-3.245943785E0
1.805776501E1,-6.707596034E-2,9.862674475E-1,-1.649624109E0
1.807376501E1,-8.152831197E-1,3.629514277E-1,2.364992350E-1
1.808976501E1,-1.316064000E0,3.788393140E-1,1.408288598E0
1.810576501E1,-1.787884474E0,9.671138525E-1,1.938948989E0
1.812176501E1,-1.919508100E0,1.700409889E0,2.300358534E0
1.813776501E1,-1.032552123E0,1.673853397E0,2.195023298E0
1.815376501E1,1.183530569E0,5.197237730E-1,1.448970795E0
1.816976501E1,4.605716228E0,-1.608568311E0,1.906991243E0
1.818576501E1,6.150120258E0,-4.423402309E0,-5.189480186E-1
1.820176501E1,8.696142197E0,-3.690566063E0,-3.993997812E0
1.821776501E1,1.655330849E1,7.184453487E0,-2.965218782E0
1.823376501E1,7.419219017E0,2.901730347E1,1.093384027E-1
1.824976344E1,-1.864640617E1,2.704949951E1,1.166923332E1
1.826576344E1,-2.200578690E1,3.698163223E1,-2.559200525E0
1.828176501E1,-7.999027729E0,3.711436844E1,3.135906219E0
1.829776501E1,1.428256273E0,3.989244843E1,9.095237732E0
1.831376344E1,-2.013150215E0,4.259392929E1,1.071072006E1
1.832976344E1,-4.496387005E0,3.886838913E1,8.074387550E0
1.834576344E1,-2.032686710E0,2.737223816E1,5.302600861E0
1.836176344E1,1.804528952E0,1.968415833E1,2.664296389E0
1.837776344E1,4.746438026E0,1.314016438E1,1.353767872E0
1.839376501E1,6.756436825E0,8.281954765E0,8.246109486E-1
1.840976501E1,6.983560562E0,4.131597042E0,-5.442498997E-2
1.842576501E1,5.435067654E0,-1.775731444E-1,-1.207443774E-1
1.844176501E1,3.748582602E0,-2.520021677E0,-3.463260531E-1
1.845776501E1,2.561642647E0,-3.152933836E0,9.272168875E-1
1.847376501E1,2.299630642E0,-2.332297087E0,2.507830620E0
1.848976501E1,2.353615284E0,-4.095233977E-1,2.948392391E0
1.850576501E1,3.333131075E0,1.922898293E0,2.647919893E0
1.852176501E1,4.297429085E0,3.938117027E0,1.800085306E0
1.853776501E1,4.246519089E0,4.708073139E0,1.444594264E0
1.855376501E1,3.232967377E0,5.050233364E0,1.480497718E0
1.856976501E1,2.960056782E0,6.102906227E0,1.341787219E0
1.858576501E1,2.145501614E0,7.364018440E0,7.815057635E-1
1.860176501E1,1.572387218E0,8.512325287E0,-2.184852809E-1
1.861776501E1,1.237687349E0,9.701180458E0,-1.463039160E0
1.863376501E1,3.992283344E-1,1.070269394E1,-1.793975353E0
1.864976501E1,1.365058780E0,1.117079926E1,-1.801177144E0
1.866576501E1,2.513241529E0,6.941432476E0,-8.904706240E-1
1.868176501E1,1.245147705E0,-3.530116320E0,3.689148664E0
1.869776501E1,-1.543484330E0,-1.735626793E1,-2.042962790E0
1.871376344E1,3.744148314E-1,-3.120328522E1,-7.645452023E-1
1.872976344E1,6.974472046E0,-2.803647423E1,8.260369301E0
1.874576344E1,1.408535671E1,-1.812645340E1,4.593246937E0
1.876176344E1,1.580627060E1,-2.192729759E1,4.777131557E0
1.877776344E1,8.547482491E0,-2.919841957E1,4.321725368E0
1.879376344E1,6.229147911E0,-2.045894051E1,3.671814680E0
1.880976501E1,4.581822395E0,-1.113218594E1,3.612352371E0
1.882576501E1,4.010125160E0,-1.277057648E0,2.244631052E0
1.884176344E1,5.065891743E0,2.520337820E0,5.617640018E0
1.885776344E1,5.001123428E0,3.154657602E0,5.290122509E0
1.887376344E1,6.217837334E0,6.575052261E0,3.277805567E0
1.888976344E1,6.820984840E0,7.682610512E0,1.024143696E0
1.890576344E1,4.988501072E0,6.201049328E0,-4.890396297E-1
1.892176344E1,2.003429651E0,2.898210049E0,-4.923245013E-1
1.893776344E1,-7.870603204E-1,7.682322860E-1,-5.355254412E-1
1.895376501E1,-2.739608288E0,5.044295788E-1,-8.498075604E-1
1.896976344E1,-3.409726381E0,1.836668730E0,-8.766130209E-1
1.898576344E1,-3.979996443E0,2.777407885E0,-1.881267875E-1
1.900176344E1,-4.517044544E0,3.117681742E0,5.196662545E-1
1.901776344E1,-4.346088886E0,2.907930374E0,7.324628830E-1
1.903376344E1,-2.575806618E0,2.584330082E0,6.042485833E-1
1.904976344E1,-1.446193606E-1,2.351872206E0,6.019693613E-1
1.906576344E1,3.187094212E0,9.606878161E-1,3.269138932E-1
1.908176501E1,7.843213558E0,-2.330870390E0,-2.599624395E-1
1.909776344E1,1.130453873E1,-5.826624870E0,-2.127889872E0
1.911376344E1,2.288150024E1,3.356642008E0,9.945609570E-1
1.912976344E1,1.622704697E1,2.162737846E1,-4.207627296E0
1.914576501E1,-7.781711102E0,3.015012550E1,9.310810089E0
1.916176344E1,-1.765685272E1,3.837300110E1,-1.554794550E0
1.917776344E1,-1.282145786E1,3.969935226E1,-1.923980564E-2
1.919376344E1,-4.929661155E-1,3.805329514E1,9.054238319E0
1.920976344E1,5.192362785E0,4.211477280E1,1.166087341E1
1.922576344E1,1.185053229E0,4.082118607E1,9.477016449E0
1.924176344E1,-1.296728373E0,3.109457970E1,7.281792164E0
1.925776344E1,2.053842068E0,2.189207268E1,4.982716560E0
1.927376344E1,5.477531433E0,1.483817959E1,3.680654049E0
1.928976344E1,7.193943977E0,8.671070099E0,2.981547356E0
1.930576344E1,6.084308147E0,4.007213593E0,7.585980296E-1
1.932176501E1,3.637213945E0,-7.787572145E-1,7.171591520E-1
1.933776344E1,2.035885572E0,-3.351039648E0,-6.900089234E-2
1.935376344E1,1.476916075E0,-3.886210680E0,3.050213121E-2
1.936976344E1,1.594499946E0,-2.668012142E0,9.646430016E-1
1.938576501E1,1.778365135E0,-1.339795291E-1,2.109579086E0
1.940176344E1,2.551088810E0,2.845183134E0,2.957758427E0
1.941776344E1,3.353778601E0,4.922019005E0,2.829199553E0
1.943376344E1,3.729438543E0,5.733165264E0,1.854979634E0
1.944976344E1,3.218994617E0,6.151566029E0,1.639855862E0
1.946576344E1,3.106495857E0,7.521375179E0,1.463977814E0
1.948176344E1,2.199131727E0,8.620409012E0,4.401691854E-1
1.949776344E1,1.845575213E0,8.897667885E0,1.416122466E-1
1.951376344E1,2.101074696E0,9.249749184E0,3.672609627E-1
1.952976344E1,2.397266388E0,9.984807968E0,-1.914595217E-1
1.954576344E1,1.911176324E0,1.035419464E1,-1.383532643E0
1.956176344E1,7.829710245E-1,6.484915733E0,-6.674938202E-1
1.957776344E1,-1.755706429E0,-4.036442280E0,3.087131500E0
1.959376344E1,-4.393417358E0,-1.560129738E1,-2.818674564E0
1.960976344E1,-4.445266724E0,-2.312986565E1,-4.007002831E0
1.962576344E1,2.257904530E0,-2.320155716E1,6.636593342E0
1.964176344E1,9.269630432E0,-1.804449463E1,3.699654579E0
1.965776344E1,1.135308361E1,-2.172329140E1,6.230019093E0
1.967376344E1,1.062440395E1,-3.116553497E1,6.681038857E0
1.968976501E1,8.430711746E0,-2.643733978E1,7.194001675E0
1.970576344E1,6.910365105E0,-1.517275524E1,4.764968872E0
1.972176344E1,4.493974209E0,-5.107981682E0,3.461642027E0
1.973776501E1,3.568097830E0,6.885245442E-1,5.088904381E0
1.975376344E1,4.384855747E0,3.426533699E0,5.843518734E0
1.976976344E1,5.302926540E0,7.754034042E0,3.300368547E0
1.978576344E1,6.621442318E0,8.690434456E0,1.613251448E0
1.980176344E1,5.127412796E0,6.810450077E0,-4.816367924E-1
1.981776344E1,1.960065961E0,5.778396130E0,-3.602526665E0
1.983376344E1,-5.151364580E-2,5.689734459E0,-2.724687815E0
1.984976344E1,-8.124867082E-1,4.950117111E0,4.347200096E-1
1.986576344E1,-1.275726438E0,2.400484085E0,3.644492149E0
1.988176344E1,-1.338148117E0,4.124060273E-1,3.478315353E0
1.989776344E1,-1.846408367E0,9.680811167E-1,1.244362473E0
1.991376344E1,-2.158640862E0,3.787655830E0,1.012651548E-1
1.992976344E1,-1.601347446E0,6.140619755E0,-6.502652168E-2
1.994576344E1,9.683109075E-2,5.800959110E0,-5.085284263E-2
1.996176344E1,2.583238363E0,3.004282713E0,4.637089744E-2
1.997776344E1,5.279339314E0,-2.058802843E0,2.030867100E0
1.999376344E1,8.647693634E0,-7.349883080E0,3.311343670E0
2.000976344E1,1.596726704E1,-4.599989414E0,1.283722997E0
2.002576344E1,2.291041183E1,1.266515446E1,-3.276867151E0
2.004176344E1,3.103258848E0,2.821640396E1,-6.770610809E-1
2.005776344E1,-1.521610928E1,3.258866501E1,8.602989197E0
2.007376501E1,-1.260520363E1,3.764820862E1,-3.408682346E0
2.008976344E1,-6.054083824E0,3.719014740E1,7.312629223E0
2.010576344E1,4.313479900E0,4.074084854E1,1.135199261E1
2.012176501E1,5.046833515E0,4.018567276E1,9.095466614E0
2.013776501E1,-5.913773775E-1,3.313010788E1,8.488680840E0
2.015376501E1,-5.708734989E-1,2.506401634E1,7.000741482E0
2.016976501E1,1.535535693E0,1.847191811E1,4.808256149E0
2.018576344E1,3.509736776E0,1.175677586E1,3.517541885E0
2.020176344E1,4.559527397E0,6.154841423E0,2.917488098E0
2.021776501E1,3.952022552E0,2.634148598E0,8.500565290E-1
2.023376501E1,1.741073012E0,-7.173698545E-1,1.543302387E-1
2.024976501E1,1.105690241E0,-2.285878420E0,-9.057935476E-1
2.026576344E1,1.536340117E0,-2.635920525E0,-2.675568163E-1
2.028176344E1,2.379836321E0,-1.302924514E0,1.188749909E0
2.029776501E1,3.548829317E0,1.051676989E0,2.745957851E0
2.031376344E1,4.686017513E0,2.900470018E0,3.086853743E0
2.032976344E1,4.747740269E0,3.413633585E0,2.074796200E0
2.034576344E1,3.196249723E0,4.158938885E0,6.832190156E-1
2.036176344E1,2.344842672E0,5.505045414E0,6.236224771E-1
2.037776501E1,3.073206902E0,8.433469772E0,6.657029986E-1
2.039376344E1,3.297687292E0,1.047276497E1,3.292602003E-1
2.040976344E1,2.056082964E0,1.043151760E1,5.718694329E-1
2.042576344E1,9.373778850E-2,1.065101719E1,6.884862185E-1
2.044176344E1,-7.105320692E-1,1.116463184E1,-6.000348330E-1
2.045776344E1,-3.400628269E-1,7.865699768E0,-1.151017189E0
2.047376344E1,-1.205193281E0,-2.205394983E0,3.309457064E0
2.048976344E1,-4.432816505E0,-1.446255875E1,-3.355923891E0
2.050576344E1,-1.518632531E0,-2.409866333E1,-2.957001925E0
2.052176344E1,4.314523697E0,-2.831495857E1,7.448351860E0
2.053776344E1,9.573885918E0,-2.125744820E1,3.092389107E0
2.055376344E1,1.407530117E1,-2.330411530E1,5.399910927E0
2.056976501E1,1.166438770E1,-2.688064957E1,5.007980347E0
2.058576501E1,8.112819672E0,-1.908922768E1,5.871693134E0
2.060176501E1,6.011160851E0,-1.005050373E1,4.644396782E0
2.061776501E1,4.627196789E0,-2.883816004E0,5.294863224E0
2.063376501E1,3.888241053E0,1.522865534E0,6.219896317E0
2.064976501E1,3.611308575E0,7.048118114E0,5.262225628E0
2.066576501E1,3.174050570E0,1.197737694E1,2.777053595E0
2.068176501E1,2.927409649E0,1.092076778E1,7.032153606E-1
2.069776501E1,3.053229809E0,5.928024292E0,-8.682620525E-1
2.071376501E1,3.358155251E0,2.177823305E0,-2.123561054E-1
2.072976501E1,3.038596153E0,2.220478356E-1,1.468229890E0
2.074576501E1,2.113198996E0,4.729505777E-1,2.536704540E0
2.076176501E1,7.927680612E-1,2.888776541E0,2.738296270E0
2.077776501E1,-4.690432847E-1,4.901371479E0,2.533400536E0
2.079376501E1,-1.434078932E0,4.641859055E0,2.046917915E0
2.080976501E1,-1.952624798E0,2.919719458E0,1.246229887E0
2.082576501E1,-1.335619807E0,1.328839302E0,5.019683242E-1
2.084176501E1,7.145255804E-1,-1.147684529E-1,-3.482318521E-1
2.085776501E1,2.638515711E0,-1.304207921E0,-1.402169108E0
2.087376344E1,4.010316849E0,-3.178532600E0,-2.994475842E0
2.088976344E1,4.802289486E0,-5.114512920E0,-5.889209270E0
2.090576344E1,1.422383690E1,-3.251326084E-2,-3.012863360E-2
2.092176344E1,2.324819756E1,2.063706017E1,1.850239038E-1
2.093776344E1,-5.710276604E0,3.300912857E1,1.518072319E1
2.095376501E1,-1.883769417E1,3.806136322E1,6.465685368E-1
2.096976344E1,-1.258041859E1,3.881546783E1,-2.310653448E0
2.098576501E1,-8.821388483E-1,3.697480392E1,5.626297474E0
2.100176501E1,5.160136700E0,4.161491394E1,1.192561436E1
2.101776501E1,2.205098152E0,3.872298431E1,9.639993668E0
2.103376344E1,2.109990835E0,2.890060043E1,6.191941738E0
2.104976344E1,6.209697247E0,2.075856209E1,4.995952129E0
2.106576501E1,7.031320095E0,1.402910233E1,4.346462250E0
2.108176344E1,5.586199284E0,8.572975159E0,3.969998360E0
2.109776344E1,4.789428234E0,4.543007374E0,9.155331254E-1
2.111376344E1,2.725032568E0,-1.939399093E-1,2.812421024E-1
2.112976344E1,1.238817334E0,-3.283350945E0,-7.892629504E-1
2.114576344E1,8.317264915E-1,-4.041134834E0,-7.400572896E-1
2.116176344E1,7.743997574E-1,-3.107779026E0,4.791659415E-1
2.117776501E1,1.310442328E0,-4.804396629E-1,2.039093733E0
2.119376344E1,3.302638531E0,2.954530954E0,3.285917282E0
2.120976344E1,5.562726498E0,4.591149807E0,3.351154566E0
2.122576344E1,5.271467209E0,4.712937832E0,2.503654957E0
2.124176344E1,3.867353916E0,5.024318218E0,2.359696627E0
2.125776501E1,3.187352896E0,6.059015751E0,2.633133650E0
2.127376344E1,3.736247540E0,7.655603409E0,1.388885975E0
2.128976344E1,3.882427931E0,9.073143959E0,3.892397583E-1
2.130576344E1,3.589607477E0,1.143153667E1,-4.121761918E-1
2.132176344E1,3.906494379E0,1.330527878E1,-1.886372328E0
2.133776344E1,3.120286465E0,1.161288357E1,-3.207416296E0
2.135376344E1,1.400292039E0,3.699826956E0,5.431198478E-1
2.136976501E1,-1.254082918E-1,-8.130125046E0,3.876566887E0
2.138576344E1,-1.863129377E0,-1.630019379E1,-2.765944481E0
2.140176344E1,-3.879133463E0,-2.088178635E1,-5.026004314E-1
2.141776501E1,2.030091524E0,-2.085320854E1,5.310616970E0
2.143376344E1,6.312753201E0,-1.995820808E1,4.115603924E0
2.144976501E1,8.039278984E0,-2.497399330E1,6.621317863E0
2.146576344E1,8.460151672E0,-2.878682899E1,6.903489113E0
2.148176344E1,7.804982185E0,-2.132443619E1,6.215385914E0
2.149776501E1,7.099421024E0,-1.172870636E1,5.483191013E0
2.151376344E1,5.793939590E0,-3.405521870E0,5.222778797E0
2.152976344E1,5.887361526E0,8.751381636E-1,5.957473278E0
2.154576344E1,5.918610573E0,3.636313438E0,6.060787678E0
2.156176344E1,4.713493824E0,7.784363747E0,4.849053383E0
2.157776501E1,5.031462669E0,1.063364506E1,3.020515442E0
2.159376344E1,5.862595558E0,7.399041176E0,2.343051910E0
2.160976344E1,5.322549820E0,2.862536430E0,1.789139032E0
2.162576344E1,3.723893642E0,-4.696083069E-1,2.028540134E0
2.164176344E1,9.357210398E-1,-1.345924497E0,1.747690678E0
2.165776344E1,-1.521563053E0,-1.061110198E-2,9.048645496E-1
2.167376344E1,-2.603004932E0,1.200596452E0,2.464591265E-1
2.168976344E1,-2.835079670E0,1.415413737E0,-3.117920756E-1
2.170576344E1,-2.659843206E0,1.079219937E0,-9.150639176E-1
2.172176344E1,-2.298739910E0,1.206189156E0,-1.341720223E0
2.173776501E1,-1.398778796E0,1.977323294E0,-1.346680999E0
2.175376344E1,-1.321120411E-1,2.469954252E0,-2.442851812E-1
2.176976344E1,1.794683933E0,1.949177146E0,1.158218980E0
2.178576344E1,5.678442955E0,4.941249192E-1,2.173331738E0
2.180176344E1,5.781365395E0,-4.713263512E0,-4.635078609E-1
2.181776501E1,1.128248405E1,2.254188776E0,6.713054180E-1
2.183376344E1,1.417471790E1,2.611466789E1,2.736055374E0
2.184976344E1,-3.647700548E0,3.369840622E1,1.380179691E1
2.186576344E1,-1.471388245E1,3.573193741E1,5.370328426E0
2.188176344E1,-9.780189514E0,4.255887985E1,1.257434785E-1
2.189776501E1,-2.500398874E0,4.337925720E1,7.157820225E0
2.191376344E1,-1.617809832E-1,4.321274567E1,9.343027115E0
2.192976344E1,-3.013370991E0,3.494625854E1,7.037985802E0
2.194576344E1,-9.393985868E-1,2.467181778E1,4.182315826E0
2.196176501E1,3.504345179E0,1.685856056E1,3.247140884E0
2.197776344E1,6.047207355E0,1.142347336E1,2.988863945E0
2.199376344E1,7.138657093E0,6.391656876E0,2.006733656E0
2.200976344E1,6.920124054E0,2.671431065E0,4.670608938E-1
2.202576344E1,4.685031414E0,-1.253163457E0,8.473749757E-1
2.204176344E1,2.483831167E0,-3.864366055E0,3.889333010E-1
2.205776344E1,1.019384027E0,-5.025707245E0,7.101776600E-1
2.207376344E1,5.436561704E-1,-3.942618132E0,1.491185427E0
2.208976344E1,1.423094392E0,-8.246780038E-1,2.591474295E0
2.210576344E1,3.653369904E0,3.044591427E0,3.476170063E0
2.212176344E1,6.290784359E0,6.576709270E0,2.937302589E0
2.213776344E1,7.445344925E0,9.023966789E0,2.257444859E0
2.215376344E1,7.197698116E0,1.016609669E1,1.940960169E0
2.216976501E1,5.558656216E0,9.451370239E0,1.520097733E0
2.218576344E1,3.477482080E0,8.550957680E0,2.118676901E-1
2.220176344E1,2.146641254E0,8.086607933E0,-6.367427111E-1
2.221776344E1,1.320909739E0,8.165520668E0,-7.477762699E-1
2.223376344E1,7.903929949E-1,7.128218174E0,3.725377470E-2
2.224976344E1,2.439882994E0,5.454652309E0,5.144469142E-1
2.226576344E1,4.056313992E0,1.090396166E0,-1.823902875E-1
2.228176344E1,2.975188255E0,-5.324542046E0,-4.312924385E0
2.229776344E1,-1.662217617E0,-1.415416622E1,-4.312033653E0
2.231376344E1,-5.132737160E0,-2.883142853E1,7.379600048E0
2.232976344E1,2.829209089E0,-2.603210831E1,5.676949024E0
2.234576344E1,1.285217953E1,-2.251948738E1,6.147754192E0
2.236176344E1,9.600767136E0,-2.834953117E1,7.157140255E0
2.237776344E1,5.226762772E0,-2.618806648E1,6.903489113E0
2.239376344E1,2.706022501E0,-1.524855614E1,6.135792732E0
2.240976344E1,2.333427191E0,-5.037371635E0,4.868896484E0
2.242576344E1,3.168160915E0,1.552247167E0,5.627322197E0
2.244176501E1,3.869729042E0,3.855842829E0,5.431773663E0
2.245776344E1,4.562917709E0,4.531849861E0,5.558943748E0
2.247376344E1,4.746409416E0,5.872095585E0,3.504823923E0
2.248976344E1,5.890023232E0,7.564221859E0,8.005540371E-1
2.250576344E1,5.850164890E0,5.777792931E0,-2.141278237E-1
2.252176344E1,4.540680408E0,2.735183954E0,-1.179000735E-1
2.253776344E1,3.134010077E0,2.190225363E0,3.333782256E-1
2.255376344E1,1.628152966E0,3.647575855E0,2.513145506E-1
2.256976344E1,-2.285983786E-2,4.825101376E0,-4.061523825E-2
2.258576501E1,-1.494182944E0,3.554374218E0,5.949112400E-2
2.260176344E1,-2.510722637E0,6.809971333E-1,-1.127573252E-1
2.261776344E1,-2.724304676E0,-1.320497990E0,-4.216093421E-1
2.263376344E1,-2.488466263E0,-1.313382387E0,-7.484369874E-1
2.264976501E1,-1.835931301E0,-2.252273411E-1,-8.081580400E-1
2.266576344E1,-1.284575462E0,6.237374544E-1,-7.138647437E-1
2.268176344E1,9.193734825E-2,-2.889609933E-1,-9.093561172E-1
2.269776344E1,4.951640129E0,-2.744339466E0,-1.265009999E0
2.271376344E1,1.373276711E1,-1.295713305E0,-4.799703956E-1
2.272976344E1,2.717982101E1,1.305418396E1,8.022049904E0
2.274576501E1,5.136635303E0,3.541509628E1,7.734957218E0
2.276176501E1,-3.306823492E0,3.361862564E1,7.285048485E0
2.277776344E1,-2.458786774E1,4.081100845E1,1.098172441E-1
2.279376344E1,-2.269528008E1,3.938697433E1,5.127182961E0
2.280976344E1,3.294708729E0,4.250260544E1,1.054288673E1
2.282576344E1,2.471792936E0,3.834201050E1,1.135000992E1
2.284176344E1,-3.026012421E0,2.932285118E1,9.105743408E0
2.285776501E1,-4.208872795E0,2.260689545E1,6.581727505E0
2.287376344E1,-3.133368492E0,1.657550812E1,4.061514378E0
2.288976501E1,2.878788114E-2,1.129989433E1,2.577118635E0
2.290576344E1,3.623681545E0,6.813725471E0,1.128626704E0
2.292176344E1,4.744876862E0,3.843383312E0,-3.961350322E-1
2.293776344E1,3.480566025E0,1.320229888E0,-9.966582805E-2
2.295376501E1,2.913772106E0,4.422760904E-1,-7.763821483E-1
2.296976344E1,2.865256071E0,-3.611126542E-1,3.906379268E-2
2.298576344E1,3.050011873E0,-6.080697775E-1,1.382201433E0
2.300176344E1,3.486771822E0,-3.561135530E-1,2.504181623E0
2.301776344E1,3.545917988E0,1.498865932E-1,2.819344997E0
2.303376344E1,2.877954721E0,1.165363312E0,2.494691133E0
2.304976344E1,1.968732953E0,2.927275419E0,1.777848005E0
2.306576344E1,1.568652272E0,5.452861309E0,1.412531137E0
2.308176344E1,3.369982541E-1,7.226083755E0,1.004214406E0
2.309776344E1,-1.025800586E0,7.300447941E0,1.166464567E0
2.311376344E1,-2.044207811E0,8.511290550E0,4.579437673E-1
2.312976344E1,-1.922917485E0,1.062550545E1,-8.087613583E-1
2.314576344E1,3.890577555E-1,1.079370308E1,1.154005248E-2
2.316176344E1,1.334422708E0,5.184700966E0,2.017038345E0
2.317776344E1,-4.333122075E-1,-5.542376041E0,4.104303360E0
2.319376344E1,-2.522914171E0,-1.528038883E1,-6.270366192E0
2.320976344E1,2.347514629E0,-2.175888824E1,-2.068714857E0
2.322576344E1,1.000235271E1,-1.975311089E1,4.740615368E0
2.324176344E1,1.347030544E1,-1.713150024E1,2.356468916E0
2.325776344E1,1.598136330E1,-2.655948257E1,4.046497822E0
2.327376344E1,1.324662018E1,-3.287765503E1,3.056591034E0
2.328976344E1,8.789890289E0,-2.405519485E1,3.389835119E0
2.330576344E1,5.783557892E0,-1.479024792E1,2.617475271E0
2.332176344E1,3.302226543E0,-6.297047138E0,3.507390738E0
2.333776501E1,3.557812452E0,-1.054990649E0,3.634762287E0
2.335376344E1,2.926480770E0,1.640143037E0,3.684561491E0
2.336976344E1,4.551808357E0,4.630539417E0,2.361133099E0
2.338576344E1,5.329023838E0,6.613781452E0,3.885597885E-1
2.340176344E1,2.857815027E0,6.765372753E0,-6.864463687E-1
2.341776501E1,-7.700709999E-2,4.916780472E0,-3.878798187E-1
2.343376344E1,-2.212912798E0,2.593801498E0,9.557653219E-2
2.344976344E1,-3.215374470E0,1.485094547E0,8.512153029E-1
2.346576344E1,-3.332450867E0,1.438149095E0,1.497391224E0
2.348176344E1,-3.025207996E0,1.543024659E0,1.273945212E0
2.349776501E1,-2.763607979E0,2.011598587E0,2.204389274E-1
2.351376344E1,-2.590315342E0,1.945461273E0,-9.529976249E-1
2.352976344E1,-1.728067756E0,1.380343556E0,-1.660704494E0
2.354576344E1,8.757989854E-2,6.506003141E-1,-8.992621303E-1
2.356176344E1,3.760744810E0,4.516230524E-1,1.111867279E-2
2.357776501E1,8.305964470E0,4.929852784E-1,-2.762525678E-1
2.359376344E1,1.075288677E1,-3.153221130E0,1.422337770E0
2.360976344E1,1.853292274E1,2.944475412E0,2.181500673E0
2.362576344E1,1.771783066E1,2.365843773E1,-1.114388847E1
2.364176344E1,-7.252515793E0,3.493989944E1,9.285068512E0
2.365776344E1,-2.141961098E1,4.264249420E1,-1.152080297E0
2.367376344E1,-1.272986507E1,4.176406860E1,-1.000220776E0
2.368976344E1,1.479204893E0,3.896889114E1,5.204783916E0
2.370576344E1,4.844973564E0,4.366537476E1,1.104666519E1
2.372176344E1,-6.963679194E-1,3.952389526E1,8.077462196E0
2.373776344E1,4.035187662E-1,2.950556564E1,7.085889339E0
2.375376344E1,5.252686739E-1,2.060117531E1,5.580769062E0
2.376976344E1,2.651109219E0,1.494681931E1,3.080054283E0
2.378576344E1,5.148567677E0,9.306653976E0,2.057098150E0
2.380176344E1,5.914444447E0,4.668846607E0,5.965584517E-1
2.381776344E1,4.496023655E0,6.294835210E-1,3.317597210E-1
2.383376344E1,2.110431433E0,-2.405148029E0,-3.281875849E-1
2.384976344E1,8.869176507E-1,-3.549107075E0,-7.805289030E-1
2.386576344E1,5.140351057E-1,-3.226703882E0,8.894938231E-2
2.388176344E1,1.178981543E0,-1.473564029E0,1.367769122E0
2.389776501E1,2.570616007E0,8.368692398E-1,2.465740442E0
2.391376344E1,3.839744091E0,2.401815176E0,2.753284216E0
2.392976344E1,3.847548962E0,2.712247610E0,2.391529799E0
2.394576344E1,3.245187283E0,3.370633841E0,1.555857658E0
2.396176344E1,3.126042128E0,4.899800777E0,9.587436914E-1
2.397776344E1,3.217060089E0,6.539771557E0,5.344719887E-1
2.399376344E1,3.225593090E0,7.675704956E0,6.375663280E-1
2.400976344E1,3.024154425E0,9.325875282E0,6.219178438E-2
2.402576344E1,3.388494730E0,1.191164207E1,-3.857920766E-1
2.404176344E1,3.815217733E0,1.338320446E1,-1.772695661E0
2.405776344E1,2.122114897E0,8.595192909E0,-8.560707569E-1
2.407376344E1,-7.284407020E-1,-2.170544863E0,1.393013597E0
2.408976344E1,-2.661020994E0,-1.396652699E1,-1.162576437E0
2.410576344E1,-1.818080187E0,-2.380487633E1,-4.670340538E0
2.412176501E1,1.644222736E0,-2.583348465E1,4.461116314E0
2.413776344E1,9.979722977E0,-2.028967094E1,3.471247911E0
2.415376501E1,1.675138664E1,-2.269127655E1,3.227345705E0
2.416976501E1,1.171733761E1,-3.236694717E1,3.840146303E0
2.418576501E1,8.529764175E0,-2.668699837E1,4.690710545E0
2.420176501E1,6.824164391E0,-1.521589851E1,3.346212864E0
2.421776501E1,4.532539845E0,-5.892590046E0,4.022230148E0
2.423376501E1,3.532357454E0,8.480454087E-1,4.026606560E0
2.424976501E1,3.813292980E0,5.583958626E0,3.581888437E0
2.426576501E1,3.985608339E0,8.855913162E0,3.164186478E0
2.428176501E1,5.809558868E0,8.575924873E0,2.680816412E0
2.429776501E1,4.781316280E0,5.596398354E0,5.346730947E-1
2.431376344E1,1.598052979E0,2.110230207E0,-4.245589972E-1
2.432976344E1,-1.683727145E0,-1.237227693E-1,2.760035694E-1
2.434576344E1,-3.779505968E0,-3.165517449E-1,6.778751016E-1
2.436176344E1,-4.799148560E0,1.311486244E0,2.416132689E-1
2.437776344E1,-4.877448559E0,3.716050148E0,-5.493927002E-1
2.439376344E1,-4.730530739E0,4.726594925E0,-6.544311047E-1
2.440976344E1,-4.171685696E0,4.042485237E0,-5.172241926E-1
2.442576344E1,-2.548847914E0,3.104264498E0,4.357447103E-2
2.444176344E1,-3.792702854E-1,2.316706181E0,1.243040800E0
2.445776344E1,3.222078323E0,1.084180713E0,2.698906898E0
2.447376344E1,8.143341064E0,-8.280873299E-1,2.807383537E0
2.448976344E1,9.127807617E0,-5.215615273E0,1.135071874E0
2.450576344E1,2.336839485E1,4.679735184E0,2.676075935E0
2.452176344E1,2.096108246E1,1.576016808E1,-6.515092373E0
2.453776344E1,-1.844789863E0,2.206622696E1,6.332050800E0
2.455376344E1,-1.694171715E1,3.000172234E1,-2.012182951E0
2.456976344E1,-1.366135311E1,3.691449356E1,-7.412927151E-1
2.458576344E1,-6.099860668E0,3.808811951E1,7.194154739E0
2.460176344E1,1.807306290E0,4.306926727E1,9.968029022E0
2.461776344E1,1.907125354E0,4.399657822E1,8.335805893E0
2.463376344E1,-6.467505097E-1,3.608073425E1,6.667756081E0
2.464976344E1,2.507428169E0,2.417366982E1,4.531581879E0
2.466576344E1,5.971809387E0,1.659995842E1,3.263181925E0
2.468176344E1,7.501282692E0,1.141382027E1,2.840030670E0
2.469776344E1,7.379226685E0,6.391302109E0,1.651616096E0
2.471376344E1,6.144258976E0,2.696043491E0,3.211103380E-2
2.472976344E1,3.962154865E0,-8.113662004E-1,6.033387966E-3
2.474576344E1,2.695334673E0,-1.813483238E0,1.215679869E-1
2.476176344E1,1.685623288E0,-1.213754892E0,1.349400759E0
2.477776344E1,1.241671324E0,8.066352606E-1,2.767132044E0
2.479376344E1,1.913484216E0,3.142293930E0,3.166360617E0
2.480976344E1,2.423746109E0,4.039315224E0,2.907145023E0
2.482576344E1,2.343731880E0,3.874306917E0,1.830405474E0
2.484176344E1,1.784034610E0,3.623547554E0,1.275506258E0
2.485776344E1,1.342706680E0,3.808418512E0,8.844851851E-1
2.487376501E1,1.459725618E0,4.769153595E0,5.267435312E-1
2.488976501E1,1.357636809E0,5.578892231E0,5.867709219E-2
2.490576344E1,4.804779589E-1,6.600976944E0,-4.709969461E-1
2.492176344E1,1.511842608E0,8.979673386E0,-1.442008495E0
2.493776344E1,2.495035887E0,1.004674053E1,-1.545610428E0
2.495376501E1,1.844665408E0,7.953241348E0,-4.107588232E-1
2.496976344E1,3.291931450E-1,3.306574345E0,6.157599688E-1
2.498576344E1,-4.088051319E-1,-5.396731853E0,9.245257378E-1
2.500176344E1,6.180775166E-1,-1.797392464E1,-3.508769512E0
2.501776344E1,7.754302025E0,-3.091634560E1,4.027880192E0
2.503376501E1,9.661533356E0,-2.757087135E1,6.691352844E0
2.504976344E1,1.477094173E1,-2.465592003E1,7.249968052E0
2.506576344E1,1.427562904E1,-2.703550720E1,3.037245750E0
2.508176344E1,6.226035118E0,-2.387272835E1,5.085743904E0
2.509776344E1,3.776901007E0,-1.563484573E1,4.150549889E0
2.511376344E1,2.329366684E0,-6.378517151E0,3.307005405E0
2.512976344E1,4.115584850E0,1.924306154E0,3.761482477E0
2.514576344E1,4.879095554E0,3.139688969E0,6.038866043E0
2.516176344E1,4.995990276E0,7.419659615E0,2.909702063E0
2.517776344E1,6.616740227E0,9.176582336E0,2.126606464E0
2.519376344E1,6.231503963E0,6.734946728E0,8.670362234E-1
2.520976344E1,3.978435278E0,2.546549559E0,1.026930571E0
2.522576344E1,8.989940286E-1,2.027218491E-1,3.612179756E-1
2.524176344E1,-2.384883642E0,-4.302189052E-1,-3.608828187E-1
2.525776344E1,-3.887216330E0,-6.868389845E-1,-3.321811259E-1
2.527376344E1,-4.892369270E0,1.897165328E-1,-5.582128763E-1
2.528976344E1,-4.340362072E0,2.629427195E0,-9.680619240E-1
2.530576344E1,-3.559344769E0,4.394078732E0,-8.449521065E-1
2.532176344E1,-2.615445137E0,3.739436626E0,-5.048892498E-1
2.533776501E1,-1.758407116E0,1.920619011E0,1.963341236E-1
2.535376344E1,8.828858286E-2,4.296921790E-1,8.590012789E-1
2.536976344E1,2.833001375E0,-1.031690240E0,9.666541815E-1
2.538576344E1,5.670906067E0,-4.456729889E0,2.192111731E0
2.540176344E1,1.180602932E1,-3.069730520E0,6.182872772E0
2.541776344E1,2.403857040E1,1.322710228E1,-9.664721489E-1
2.543376501E1,6.008344650E0,2.142893791E1,-2.983625412E0
2.544976501E1,-1.518006229E1,3.073346710E1,9.178066254E0
2.546576344E1,-1.516034412E1,3.966453934E1,-5.815898776E-1
2.548176344E1,-1.024024010E1,3.714521408E1,6.278324604E0
2.549776501E1,2.477730751E0,4.223516464E1,1.343264961E1
2.551376344E1,3.109273195E0,4.614398575E1,1.201898861E1
2.552976344E1,-6.447776556E-1,3.889620972E1,9.441974640E0
2.554576344E1,-7.322617769E-1,2.812445641E1,8.478567123E0
2.556176344E1,3.156515360E-1,1.972647858E1,5.585499763E0
2.557776501E1,2.099839449E0,1.331445217E1,3.074442387E0
2.559376344E1,3.705094337E0,7.384417057E0,2.192858934E0
2.560976344E1,4.223046303E0,3.628642559E0,5.737465024E-1
2.562576344E1,3.466028214E0,1.560636461E-1,4.163037986E-2
2.564176344E1,2.850976944E0,-1.676956296E0,-6.861782074E-1
2.565776344E1,1.917975783E0,-2.149945259E0,-1.647881120E-1
2.567376344E1,1.629445791E0,-1.341729760E0,1.496902823E0
2.568976501E1,1.864211679E0,8.020001054E-1,2.721680641E0
2.570576344E1,2.879046679E0,2.652459383E0,2.808580637E0
2.572176344E1,3.312550545E0,3.524628878E0,2.107615709E0
2.573776501E1,2.881747246E0,4.097762108E0,1.718433499E0
2.575376344E1,2.281846762E0,5.069186211E0,1.205183744E0
2.576976344E1,1.536751866E0,6.013573647E0,6.734410524E-1
2.578576344E1,2.937685549E-1,6.471125126E0,1.493215859E-1
2.580176501E1,-1.273322582E0,6.805326462E0,-4.523891807E-1
2.581776501E1,-2.322892904E0,7.740923405E0,-5.410608649E-1
2.583376501E1,-1.925876737E0,9.162982941E0,-1.984122843E-1
2.584976344E1,7.229052782E-1,9.102304459E0,1.805802733E-1
2.586576344E1,2.259551764E0,4.550812721E0,-2.778040171E-1
2.588176344E1,-3.007500172E-1,-4.688574791E0,-3.028779984E0
2.589776344E1,-4.266601562E0,-1.725696564E1,-6.080611229E0
2.591376344E1,3.611413836E-1,-3.025786400E1,2.172240019E0
2.592976344E1,1.143191147E1,-2.978652191E1,3.711817026E0
2.594576344E1,1.680211449E1,-2.120034027E1,4.393781662E0
2.596176501E1,1.615365982E1,-2.336168098E1,2.078013897E0
2.597776344E1,8.018545151E0,-2.751845741E1,3.453731775E0
2.599376501E1,4.763733387E0,-1.996463394E1,2.891697645E0
2.600976501E1,4.775264263E0,-9.704456329E0,4.289279461E0
2.602576501E1,3.288301945E0,-2.666106462E0,5.981405258E0
2.604176501E1,2.964261293E0,3.926624775E0,6.847618103E0
2.605776501E1,2.937187433E0,8.970393181E0,5.445333958E0
2.607376501E1,4.163459301E0,1.237034225E1,4.651445389E0
2.608976501E1,5.005423546E0,1.039092159E1,2.772773027E0
2.610576501E1,4.475145817E0,6.403407097E0,-8.100254536E-1
2.612176501E1,3.531074047E0,3.390055418E0,-1.542411685E0
2.613776501E1,1.951753139E0,1.306889415E0,-9.190478325E-1
2.615376501E1,4.170412123E-1,5.972575545E-1,-7.279331237E-2
2.616976344E1,-8.425770402E-1,5.852865577E-1,8.672564626E-1
2.618576344E1,-1.897242069E0,1.094159842E0,9.599983096E-1
2.620176344E1,-3.089180946E0,1.762046218E0,7.137977481E-1
2.621776344E1,-3.817439795E0,1.918186545E0,2.711194158E-1
2.623376344E1,-2.791121960E0,1.499479055E0,8.072290570E-2
2.624976344E1,-1.034362197E0,-6.742168069E-1,1.758301817E-2
2.626576344E1,2.178493738E0,-2.946793079E0,-6.324235797E-1
2.628176344E1,6.411595821E0,-3.402045727E0,-1.580479622E0
2.629776344E1,1.235877323E1,-1.033347011E0,2.666853368E-1
2.631376344E1,2.117226982E1,8.331410408E0,3.939007521E0
2.632976344E1,1.284050560E1,2.958263969E1,-1.698121071E0
2.634576344E1,-4.551923275E0,3.782217789E1,1.223812485E1
2.636176501E1,-1.082569885E1,3.676576233E1,1.535679340E0
2.637776501E1,-1.439308834E1,3.773302078E1,3.722121716E-1
2.639376344E1,-3.845375299E0,4.090524292E1,5.773301125E0
2.640976344E1,-7.922030687E-1,4.458935547E1,1.022893906E1
2.642576344E1,-3.036680937E0,3.772768784E1,8.281131744E0
2.644176344E1,-2.013906717E0,2.791492653E1,5.089498043E0
2.645776501E1,1.230811119E0,1.956763840E1,3.363154411E0
2.647376501E1,3.670301437E0,1.241643524E1,2.228446245E0
2.648976344E1,5.106534958E0,6.872096062E0,1.304121733E0
2.650576344E1,5.053853512E0,2.329108238E0,-9.561483860E-1
2.652176344E1,3.262061596E0,-1.806147456E0,-1.284556270E0
2.653776344E1,2.186317921E0,-3.907480717E0,-1.490879059E0
2.655376344E1,1.983011961E0,-3.679093122E0,-3.683527112E-1
2.656976344E1,1.789656281E0,-1.710858226E0,1.449315667E0
2.658576344E1,2.238578558E0,1.078204870E0,2.910592794E0
2.660176344E1,3.080638409E0,3.518528223E0,3.169808149E0
2.661776344E1,3.793267727E0,4.019347191E0,2.109023333E0
2.663376344E1,3.401566982E0,3.390831232E0,1.637078524E0
2.664976344E1,2.773711443E0,3.577962160E0,1.640056849E0
2.666576344E1,2.531676769E0,4.966666222E0,2.272365570E0
2.668176344E1,2.515693188E0,6.433698654E0,2.112337112E0
2.669776501E1,1.762506008E0,7.590366364E0,1.167384028E0
2.671376501E1,1.270468712E0,8.832746506E0,4.974001646E-1
2.672976344E1,1.287735701E0,1.106507111E1,-1.036823392E0
2.674576501E1,1.327326298E0,1.260048199E1,-2.386281729E0
2.676176344E1,2.145204693E-3,8.022567749E0,-1.892625928E0
2.677776344E1,-2.917191267E0,-1.606346607E0,-7.966370583E-1
2.679376344E1,-7.136062145E0,-1.536459732E1,-4.609001160E0
2.680976501E1,-7.022193670E-1,-3.247076797E1,-3.919020891E-1
2.682576501E1,9.473109245E0,-2.864969635E1,6.460590363E0
2.684176501E1,1.400919247E1,-2.141456413E1,5.195331573E0
2.685776501E1,1.460401726E1,-2.618403244E1,5.611845970E0
2.687376344E1,9.302278519E0,-3.154289818E1,3.974116325E0
2.688976501E1,7.606484413E0,-2.168367195E1,4.949063778E0
2.690576344E1,5.914539814E0,-1.115801430E1,3.059234381E0
2.692176657E1,5.190830708E0,-2.463509083E0,3.786458731E0
2.693776501E1,5.065824032E0,1.021998525E0,4.994840622E0
2.695376501E1,4.141413689E0,4.791745663E0,4.161592007E0
2.696976501E1,4.809118271E0,7.538814545E0,2.870207310E0
2.698576501E1,5.417015553E0,7.047916889E0,1.255337358E0
2.700176501E1,4.188157558E0,5.069396496E0,-2.116953135E-1
2.701776501E1,2.122660875E0,2.413077593E0,-3.303040862E-1
2.703376501E1,6.567773968E-2,-1.124221310E-1,-1.736370921E-1
2.704976501E1,-1.359284043E0,-9.880870581E-1,1.631600708E-1
2.706576501E1,-2.239890575E0,-7.650048733E-1,7.951909900E-1
2.708176501E1,-3.345705271E0,2.631514966E-1,6.820985079E-1
2.709776501E1,-3.859175205E0,2.097148180E0,-3.526084721E-1
2.711376501E1,-4.172633648E0,3.655572414E0,-9.344760776E-1
2.712976344E1,-3.499719381E0,3.664909840E0,-1.346843719E0
2.714576344E1,-2.101869583E0,2.326024532E0,-1.092512608E0
2.716176344E1,-1.740584522E-1,8.540021777E-1,-5.891364217E-1
2.717776501E1,2.089994431E0,-1.460846066E-1,-7.486764789E-1
2.719376344E1,5.010575771E0,-7.652826607E-2,-9.305016994E-1
2.720976344E1,5.570483685E0,-5.578777194E-1,-1.635115266E0
2.722576344E1,1.328493690E1,7.001881123E0,4.647394657E0
2.724176501E1,1.284064007E1,3.619351959E1,3.767668962E0
2.725776501E1,-1.019181919E1,3.908426285E1,1.528833771E1
2.727376344E1,-1.620488548E1,4.179815674E1,2.547631741E0
2.728976344E1,3.294124842E0,3.842308426E1,1.070480156E1
2.730576344E1,1.072126389E1,4.491746521E1,1.262360096E1
2.732176344E1,-1.959136963E0,4.161392593E1,9.001164436E0
2.733776344E1,-3.739436626E0,3.006721878E1,6.884488583E0
2.735376344E1,-1.271713734E0,2.134498787E1,4.475059986E0
2.736976344E1,1.504583359E0,1.422253513E1,2.817668915E0
2.738576344E1,4.435335636E0,7.880562782E0,1.537489295E0
2.740176344E1,6.141050816E0,2.883145571E0,-4.822784066E-1
2.741776501E1,5.208518505E0,-7.221486568E-1,-1.349812627E0
2.743376344E1,3.277595043E0,-3.112921953E0,-1.550638318E0
2.744976344E1,2.372299671E0,-3.339882612E0,-1.082820773E0
2.746576344E1,1.462646604E0,-2.014701605E0,9.598737955E-1
2.748176344E1,1.360931277E0,1.417137623E0,4.322281361E0
2.749776344E1,2.393397331E0,4.899685860E0,5.290505886E0
2.751376344E1,4.241845131E0,5.403560162E0,3.947234154E0
2.752976344E1,4.497220516E0,4.249985695E0,1.859940410E0
2.754576344E1,4.433228493E0,3.510148764E0,1.803006172E0
2.756176344E1,4.890291214E0,4.426639557E0,2.203575373E0
2.757776501E1,4.343627930E0,6.233026505E0,1.590324640E0
2.759376344E1,3.071961880E0,8.586823463E0,5.460025072E-1
2.760976344E1,1.513767600E0,1.015639591E1,-2.443235070E-1
2.762576344E1,2.165794820E-1,1.178995895E1,-6.052254438E-1
2.764176344E1,2.335304469E-1,1.213025188E1,-7.341867685E-1
2.765776344E1,-6.098510697E-2,8.363300323E0,-1.573086232E-1
2.767376344E1,-1.581015825E0,-1.406315804E0,9.803202748E-1
2.768976501E1,-6.242516994E0,-1.762850761E1,-1.525566220E0
2.770576344E1,-3.968341589E0,-2.939150810E1,1.784446388E-1
2.772176344E1,4.786851883E0,-2.554391098E1,5.754827499E0
2.773776501E1,1.174116516E1,-2.017044067E1,6.233639240E0
2.775376344E1,1.111641216E1,-2.741226959E1,4.794637680E0
2.776976501E1,4.560303211E0,-3.262392044E1,4.015277386E0
2.778576344E1,3.491244078E0,-2.122457123E1,3.394690752E0
2.780176501E1,2.577511549E0,-1.057332134E1,3.488476276E0
2.781776344E1,2.604038954E0,-2.183942795E0,3.687712193E0
2.783376344E1,1.979210019E0,3.939084291E0,3.811281681E0
2.784976344E1,2.492229939E0,8.201491356E0,3.805688858E0
2.786576501E1,3.733374596E0,9.814023972E0,2.393857002E0
2.788176501E1,4.403195381E0,8.113509178E0,1.134918690E0
2.789776501E1,3.620990753E0,6.164628983E0,-3.603752553E-1
2.791376501E1,2.618442535E0,6.155598164E0,-2.152818441E0
2.792976501E1,2.053985596E0,6.361795902E0,-5.701647997E-1
2.794576501E1,8.028619885E-1,5.202868462E0,2.019595385E0
2.796176344E1,-9.287299514E-1,3.126750708E0,3.649816990E0
2.797776344E1,-1.477662921E0,1.893507123E0,3.639138699E0
2.799376344E1,-1.245138049E0,2.239756584E0,3.155749321E0
2.800976501E1,-4.790701866E-1,3.318095446E0,3.027161598E0
2.802576344E1,1.064873934E0,3.499968529E0,2.999618769E0
2.804176344E1,3.149304152E0,1.961042762E0,2.653924704E0
2.805776501E1,5.254976273E0,-1.244611382E0,6.730005741E-1
2.807376501E1,6.623434544E0,-6.174636841E0,-4.408970475E-1
2.808976501E1,6.646361351E0,-9.224696159E0,-3.532309294E0
2.810576501E1,1.501635647E1,1.457839012E0,-1.272757530E0
2.812176501E1,1.474551487E1,2.320172119E1,-5.886441708E0
2.813776501E1,-5.838040352E0,3.470877075E1,7.917423725E0
2.815376501E1,-1.715936661E1,3.674145889E1,2.524187803E0
2.816976501E1,-1.169756126E1,3.587321472E1,1.707669139E0
2.818576501E1,3.622034311E0,3.750581360E1,1.175807858E1
2.820176501E1,2.782004833E0,4.238683319E1,9.341016769E0
2.821776501E1,-3.341788292E0,3.737414932E1,7.237776756E0
2.823376501E1,-3.386080980E0,2.950430298E1,5.859770298E0
2.824976501E1,-1.683277011E0,2.265421486E1,4.427922726E0
2.826576501E1,2.047377586E0,1.623136711E1,3.359812021E0
2.828176501E1,4.854799271E0,9.594686508E0,2.228379488E0
2.829776501E1,5.753889084E0,4.787215710E0,4.851131737E-1
2.831376501E1,4.416076183E0,6.538373232E-1,7.393773794E-1
2.832976501E1,3.067690611E0,-2.095031738E0,-2.465070225E-2
2.834576344E1,2.754021406E0,-3.124959946E0,-1.686188281E-1
2.836176344E1,2.832867384E0,-2.706520557E0,9.468109608E-1
2.837776501E1,3.202790737E0,-5.378525853E-1,2.294641018E0
2.839376501E1,4.011638165E0,2.125964880E0,3.295781612E0
2.840976501E1,5.187794209E0,4.155500889E0,2.910918236E0
2.842576501E1,4.311085701E0,4.600219250E0,2.188989878E0
2.844176501E1,3.622159004E0,5.310291290E0,1.647814035E0
2.845776501E1,3.391970873E0,6.103471279E0,1.318046331E0
2.847376501E1,2.765954018E0,7.595825195E0,1.110794663E0
2.848976501E1,1.889504075E0,8.905414581E0,2.507016361E-1
2.850576501E1,9.528156519E-1,9.498784065E0,7.048529573E-3
2.852176501E1,5.614211559E-1,9.789048195E0,-6.954293847E-1
2.853776501E1,8.985247016E-1,1.054433250E1,-1.605034590E0
2.855376501E1,8.386218548E-1,9.043771744E0,-2.459429502E0
2.856976501E1,-2.711098194E-1,2.623930216E0,-2.683679819E0
2.858576501E1,-5.011868477E0,-1.370672894E1,2.236040831E0
2.860176501E1,-1.339890957E0,-2.997696686E1,1.326780438E0
2.861776501E1,7.745673180E0,-2.911953545E1,5.478460312E0
2.863376501E1,1.298284531E1,-2.034406853E1,5.226695538E0
2.864976501E1,1.638721848E1,-2.002842522E1,4.813791275E0
2.866576501E1,1.081924438E1,-2.822253227E1,5.070000172E0
2.868176501E1,6.186779976E0,-2.338428307E1,5.339893341E0
2.869776501E1,3.231875420E0,-1.381250381E1,4.675081253E0
2.871376501E1,1.932714462E0,-4.027497292E0,4.711903572E0
2.872976501E1,2.040204525E0,1.488925338E0,5.894677639E0
2.874576501E1,2.778250694E0,6.281542301E0,4.692759991E0
2.876176501E1,3.219339371E0,9.770191193E0,3.178570747E0
2.877776501E1,4.542279243E0,9.642024040E0,1.880817890E0
2.879376501E1,5.243512154E0,8.097535133E0,-3.022823036E-1
2.880976501E1,4.754721642E0,4.783078671E0,-7.409288287E-1
2.882576501E1,2.904099703E0,1.763846636E0,-2.785797417E-1
2.884176501E1,5.819921494E-1,-4.841075838E-2,4.658924937E-1
2.885776501E1,-9.429994226E-1,-1.078061163E-1,9.867941737E-1
2.887376501E1,-2.057787657E0,1.319798946E0,8.110310435E-1
2.888976501E1,-2.886583805E0,2.895633698E0,8.376928568E-1
2.890576501E1,-2.809873581E0,3.592815638E0,7.829135060E-1
2.892176501E1,-2.501107693E0,3.008678436E0,5.401797891E-1
2.893776501E1,-1.157395363E0,1.682874799E0,4.474188089E-1
2.895376501E1,1.522405863E0,-1.238281131E0,2.354649454E-1
2.896976344E1,3.530595303E0,-4.660189152E0,-1.647143722E0
2.898576344E1,7.931310177E0,-5.417456150E0,-3.931374848E-1
2.900176344E1,2.278475571E1,7.833952427E0,2.808073044E0
2.901776501E1,1.214876366E1,2.324461555E1,-1.597507238E0
2.903376344E1,-1.268700886E1,3.637278748E1,1.540318298E1
2.904982438E1,-1.145201302E1,3.970127487E1,1.473707795E0
2.906576344E1,-8.826396942E0,3.568622589E1,4.460062504E0
2.908176344E1,2.093662262E0,3.893547821E1,1.179035187E1
2.909776501E1,2.627655506E0,4.258545303E1,1.202102852E1
2.911376344E1,-1.843832135E0,3.823645401E1,9.973123550E0
2.912976344E1,-2.086891651E0,2.706447601E1,7.082670689E0
2.914576501E1,1.721727848E0,1.762531853E1,4.432222843E0
2.916176344E1,4.380403042E0,1.003708649E1,1.906215429E0
2.917776501E1,5.241051197E0,4.082516193E0,1.785882860E-1
2.919376344E1,4.664039135E0,2.855803818E-2,-4.472751915E-1
2.920976344E1,3.089123487E0,-2.413087130E0,-5.053968430E-1
2.922576344E1,2.322432995E0,-3.248175144E0,-2.764728367E-1
2.924176344E1,2.207022905E0,-2.590602875E0,1.061225057E0
2.925776501E1,2.230438232E0,-6.923648119E-1,2.935530663E0
2.927376501E1,2.386530876E0,2.367444038E0,4.304142475E0
2.928976501E1,3.884850740E0,4.539396763E0,5.553724289E0
2.930576501E1,4.508635998E0,5.129586697E0,4.267788887E0
2.932176501E1,3.508386374E0,6.291368008E0,2.052338362E0
2.933776501E1,2.879985094E0,8.234339714E0,1.227334857E0
2.935376501E1,2.972439766E0,9.090429306E0,1.103286505E0
2.936976501E1,3.180629969E0,8.769625664E0,1.146439552E0
2.938576344E1,9.905099273E-1,8.095332146E0,7.491648793E-1
2.940176344E1,-3.530968726E-2,9.792562485E0,-8.787486553E-1
2.941776501E1,1.398788393E-1,1.237793636E1,-3.542556524E0
2.943376344E1,-8.835370541E-1,8.652913094E0,-3.135638237E0
2.944976344E1,-2.605609655E0,1.703618169E-1,-1.078396320E0
2.946576344E1,-4.099888802E0,-1.651572990E1,2.657362700E0
2.948176344E1,-3.420739770E-1,-2.505350113E1,-2.064204216E0
2.949776501E1,3.787952662E0,-2.229501724E1,4.971655846E0
2.951376344E1,1.073706532E1,-1.934642410E1,3.005604267E0
2.952976344E1,1.376544380E1,-2.435807228E1,3.678144932E0
2.954576344E1,1.149926472E1,-3.179773903E1,5.652518749E0
2.956176344E1,8.316287994E0,-2.390632439E1,6.404489517E0
2.957776501E1,4.113650322E0,-1.305549622E1,3.891219378E0
2.959376344E1,9.137039781E-1,-2.990032196E0,3.341185093E0
2.960976344E1,2.764872074E0,1.948640704E0,5.251489639E0
2.962576344E1,3.337900162E0,6.228458405E0,3.714766741E0
2.964176344E1,4.344154358E0,9.353857994E0,3.136461735E0
2.965776344E1,5.037744999E0,9.806114197E0,2.224969864E0
2.967376344E1,5.800518513E0,7.620408535E0,1.171530724E0
2.968976344E1,5.367761612E0,3.457696438E0,1.895115972E0
2.970576501E1,3.273544073E0,1.385045648E0,2.199984074E0
2.972176344E1,5.464429855E-1,1.022410393E0,2.005191803E0
2.973776501E1,-1.222402811E0,1.473085284E0,1.106896877E0
2.975376344E1,-2.221177578E0,1.978022456E0,1.388541311E-1
2.976976344E1,-2.674026251E0,1.748265266E0,-1.941793412E-1
2.978576344E1,-2.264905214E0,1.550073266E0,-4.675014019E-1
2.980176501E1,-1.262290120E0,1.380008340E0,-1.007872701E0
2.981776501E1,3.709193170E-1,9.627276659E-1,-1.725654364E0
2.983376344E1,1.903888345E0,-6.451990604E-1,-2.355339050E0
2.984976344E1,4.485201836E0,-3.844216585E0,-3.342324734E0
2.986576344E1,7.564327240E0,-4.639101028E0,-4.648764133E0
2.988176344E1,1.519202328E1,-4.916253686E-1,2.307502985E0
2.989776501E1,2.180533600E1,2.099619102E1,5.933004379E0
2.991376344E1,1.032801151E0,4.322462845E1,6.513215065E0
2.992976344E1,-1.494588089E1,3.902168655E1,2.137035608E0
2.994576501E1,-2.183157539E1,4.169675827E1,-1.703426600E0
2.996176501E1,-3.862153769E0,3.693779373E1,8.850434303E0
2.997776344E1,6.278707981E0,4.215231705E1,1.184851170E1
2.999376344E1,-2.549355507E0,3.985802078E1,9.585071564E0
3.000976344E1,-6.576517582E0,3.060113525E1,7.150618553E0
3.002576501E1,-3.692117691E0,2.126133347E1,4.382203102E0
3.004176344E1,2.629695535E-1,1.364309025E1,2.362981319E0
3.005776501E1,3.631706953E0,7.636306286E0,7.302889824E-1
3.007376501E1,5.405389309E0,2.821518898E0,-5.925553441E-1
3.008976501E1,4.995377541E0,-9.226391315E-1,-8.699380159E-1
3.010576501E1,3.222384691E0,-3.746801376E0,-8.044134378E-1
3.012176501E1,2.105700493E0,-4.033559799E0,7.086837292E-2
3.013776344E1,1.480296612E0,-2.274644852E0,1.952366114E0
3.015376344E1,1.367999077E0,1.076145768E0,3.085244894E0
3.016976344E1,2.059817791E0,4.133417130E0,3.529752493E0
3.018576344E1,3.549720049E0,5.327950954E0,3.227249861E0
3.020176344E1,3.525864363E0,5.186328888E0,2.114673853E0
3.021776501E1,2.964883566E0,5.331054211E0,1.212088466E0
3.023376501E1,2.273916960E0,6.184414387E0,1.147856951E0
3.024976501E1,1.475699663E0,7.352583885E0,-4.992389306E-2
3.026576344E1,1.428648949E0,8.667690277E0,-5.560772419E-1
3.028176344E1,1.859289169E0,9.774462700E0,-1.398309588E0
3.029776501E1,1.447974801E0,1.017349911E1,-5.622255802E-1
3.031376501E1,7.652634978E-1,9.875431061E0,-8.597099781E-1
3.032976501E1,1.148843288E0,6.718062878E0,-1.220449090E0
3.034576501E1,1.064845100E-1,-3.145023346E0,1.104473948E0
3.036176501E1,-2.642758131E0,-1.832055664E1,-1.086565256E0
3.037776501E1,-4.547642469E-1,-3.205147552E1,-2.875311852E0
3.039376501E1,8.447213173E0,-2.995983315E1,6.307782650E0
3.040976501E1,1.472334480E1,-1.994944572E1,4.271131516E0
3.042576501E1,1.403106499E1,-2.459743309E1,4.007951260E0
3.044176501E1,9.328614235E0,-3.014184952E1,5.243378639E0
3.045776501E1,7.568109989E0,-1.999098969E1,6.521518230E0
3.047376501E1,6.137133598E0,-8.574498177E0,3.974030018E0
3.048976501E1,5.359267235E0,7.144297659E-2,2.858447075E0
3.050576501E1,4.994084358E0,3.124749184E0,4.921118736E0
3.052176501E1,4.605965137E0,5.809693336E0,4.729592323E0
3.053776501E1,8.297852516E0,6.463961601E0,3.243214369E0
3.055376344E1,9.954716682E0,4.636888504E0,9.274083972E-1
3.056976344E1,7.629679203E0,1.652257681E0,-7.070268989E-1
3.058576344E1,3.084622383E0,-6.783251762E-1,-1.899980903E0
3.060176344E1,-1.282008767E0,-2.088299274E0,-1.902126193E0
3.061776344E1,-4.511652946E0,-2.103928804E0,-1.955852032E0
3.063376344E1,-6.865679741E0,-6.920105219E-1,-2.668912411E0
3.064976344E1,-7.811954498E0,2.185695648E0,-3.268439770E0
3.066576344E1,-8.391610146E0,4.624726295E0,-2.972669601E0
3.068176344E1,-7.334339619E0,4.407160282E0,-2.229748726E0
3.069776501E1,-4.548743725E0,2.331952333E0,-1.011109710E0
3.071376344E1,-1.628488183E0,1.385093480E-1,-3.509899601E-2
3.072976344E1,2.203776360E0,-2.019308090E0,1.974804521E0
3.074576344E1,6.278315067E0,-8.610889912E-1,7.896555662E-1
3.076176344E1,1.245349789E1,7.980448604E-1,5.506970406E0
3.077776344E1,2.127124596E1,8.666579247E0,4.058650494E0
3.079376501E1,1.205705547E1,1.944427872E1,-4.080399513E0
3.080976501E1,-8.612987518E0,2.826274681E1,7.799140453E0
3.082576501E1,-1.875510406E1,4.136764908E1,2.648810863E0
3.084176501E1,-5.966063499E0,3.616616821E1,4.463817120E0
3.085776344E1,1.027846050E1,4.187368774E1,1.043689919E1
3.087376344E1,4.692099094E0,4.593998718E1,1.152061176E1
3.088976344E1,-2.833298445E-1,4.093096542E1,1.019352436E1
3.090576344E1,-2.056140453E-1,2.879511070E1,7.916475773E0
3.092176344E1,2.762429953E0,2.009758949E1,3.869173527E0
3.093776344E1,4.474265099E0,1.327211285E1,2.586934805E0
3.095376501E1,5.763494492E0,7.575387955E0,1.820895791E0
3.096976344E1,6.610668659E0,3.746820211E0,6.025247574E-1
3.098576344E1,5.082190990E0,7.247344255E-1,4.630194604E-1
3.100176344E1,2.774161577E0,-1.586331010E0,-2.133042216E-1
3.101776501E1,1.570510149E0,-2.151429653E0,-1.329548061E-1
3.103376344E1,1.040797710E0,-1.456967473E0,1.109578371E0
3.104976344E1,1.475565672E0,5.784391761E-1,1.978558660E0
3.106576344E1,2.416486740E0,2.910678864E0,2.583879948E0
3.108176344E1,3.251996279E0,4.399259090E0,2.580719471E0
3.109776344E1,2.466420412E0,5.397047997E0,1.881066799E0
3.111376344E1,1.429644942E0,5.990618229E0,1.411209464E0
3.112976344E1,7.156364918E-1,5.942245483E0,1.878461957E0
3.114576344E1,5.024759173E-1,6.782351971E0,1.229910970E0
3.116176344E1,-5.633173585E-1,7.365474224E0,3.211582005E-1
3.117776344E1,-1.331789017E0,9.221641541E0,1.299859881E-1
3.119376344E1,-1.957154512E0,9.747819901E0,1.390743852E-1
3.120976344E1,-2.241365433E0,7.444636345E0,6.785072088E-1
3.122576501E1,-1.624264717E0,2.596856356E0,1.054502249E0
3.124176344E1,-1.585354090E0,-4.946765423E0,-4.682675600E-1
3.125776344E1,-1.412004352E0,-1.446392727E1,-3.524820328E0
3.127376344E1,2.823673487E0,-2.009165192E1,-3.140234947E-2
3.128976344E1,8.423213959E0,-1.958059502E1,5.388447762E0
3.130576344E1,1.048476505E1,-1.942776871E1,3.276876688E0
3.132176344E1,1.270425701E1,-2.615541840E1,4.455647469E0
3.133776344E1,1.355033875E1,-3.027727509E1,3.273362160E0
3.135376344E1,1.083376312E1,-2.348984718E1,4.161888599E0
3.136976344E1,7.762030602E0,-1.515093899E1,5.048059464E0
3.138576344E1,4.552268028E0,-6.915029526E0,5.191960335E0
3.140176501E1,4.180477142E0,-9.258377552E-1,5.887313366E0
3.141776344E1,4.430632591E0,4.315902710E0,5.480385303E0
3.143376344E1,5.121762753E0,8.490844727E0,4.701513290E0
3.144976344E1,6.851927757E0,9.324774742E0,6.167750955E-1
3.146576344E1,7.431927681E0,6.000300407E0,-7.026311755E-1
3.148176344E1,4.700881004E0,1.045126438E0,1.422443092E-1
3.149776344E1,1.135684848E0,-1.137006402E0,-2.009214014E-1
3.151376344E1,-1.826076746E0,-8.751956224E-1,1.764239371E-1
3.152976344E1,-3.424589634E0,-2.324578315E-1,1.075906396E0
3.154576344E1,-4.092390060E0,2.132754773E-1,1.083213449E0
3.156176344E1,-5.316171646E0,1.703723550E0,-3.150769472E-1
3.157776344E1,-5.880274296E0,3.129326820E0,-1.412942886E0
3.159376344E1,-5.226034641E0,3.371897936E0,-1.494872570E0
3.160976344E1,-3.624160528E0,1.939035296E0,-9.238362312E-1
3.162576344E1,-6.916561127E-1,-2.126529962E-1,-2.633621730E-2
3.164176344E1,4.545382500E0,-1.942377567E0,1.120084286E0
3.165776344E1,1.046162701E1,-3.843268394E0,1.026786923E0
3.167376501E1,2.340883827E1,2.209110737E0,2.501212835E0
3.168976344E1,2.000369835E1,1.568593884E1,-3.160700798E0
3.170576344E1,1.207951427E0,3.125909042E1,6.811120510E-1
3.172176344E1,-9.521146774E0,2.919727135E1,1.209119797E0
3.173776344E1,-2.223248100E1,3.771752548E1,-5.525051355E-1
3.175376344E1,-9.457431793E0,3.614735031E1,5.646954536E0
3.176976344E1,7.748594284E-1,4.210985184E1,6.997753620E0
3.178576344E1,4.406863451E-1,4.311307907E1,8.762021065E0
3.180176344E1,-1.464130998E0,3.603064728E1,7.065442562E0
3.181776344E1,1.408250213E0,2.474340439E1,3.928386927E0
3.183376501E1,4.578920364E0,1.671341324E1,3.105576515E0
3.184976501E1,5.094870567E0,1.112431335E1,3.386837721E0
3.186576501E1,4.269484043E0,7.273364067E0,3.112538815E0
3.188176501E1,3.659805536E0,3.995050907E0,2.024891376E0
3.189776344E1,2.430957556E0,5.553015471E-1,7.047572136E-1
3.191376344E1,1.801119685E0,-2.087322474E0,3.055384457E-1
3.192976344E1,1.838756442E0,-2.886813402E0,1.350779891E0
3.194576344E1,2.017507553E0,-9.493105412E-1,3.219645739E0
3.196176344E1,2.600898027E0,2.602861166E0,4.415559292E0
3.197776344E1,3.929804325E0,4.602038383E0,4.030763149E0
3.199376344E1,4.022268295E0,4.723204613E0,1.767811537E0
3.200976344E1,3.105385065E0,4.893499374E0,4.234672487E-1
3.202576344E1,2.242754221E0,6.818427563E0,-3.034890071E-2
3.204176344E1,1.969901204E0,8.788080215E0,6.537894011E-1
3.205776344E1,1.053506255E0,9.812971115E0,6.132221222E-1
3.207376344E1,-1.197464705E0,8.858479500E0,1.341710705E-2
3.208976344E1,-3.297716141E0,8.817902565E0,-2.065525651E-1
3.210576344E1,-2.620472908E0,1.038146019E1,-1.063849092E0
3.212176344E1,-5.740146637E-1,6.668158054E0,3.219722211E-2
3.213776501E1,-1.857048273E0,-3.120248079E0,-5.291951895E-1
3.215376344E1,-3.888470888E0,-1.315021992E1,-7.858938694E0
3.216976344E1,1.925924540E0,-2.466102600E1,4.489060879E0
3.218576344E1,8.756974220E0,-2.612368965E1,4.119396687E0
3.220176344E1,1.116112709E1,-2.269840240E1,2.871279716E0
3.221776501E1,1.419883156E1,-2.681727219E1,3.230879307E0
3.223376344E1,8.888875961E0,-3.169854164E1,2.341184616E0
3.224976344E1,5.508694172E0,-2.430240250E1,3.737933159E0
3.226576344E1,3.884238005E0,-1.251093960E1,2.757794619E0
3.228176344E1,2.550284386E0,-3.291366339E0,3.665963411E0
3.229776501E1,1.908188343E0,2.123800516E0,4.407955170E0
3.231376344E1,2.636619329E0,7.542079926E0,5.048384666E0
3.232976501E1,4.113343716E0,1.009348488E1,3.354918242E0
3.234576344E1,5.366842747E0,9.682209015E0,1.152501702E0
3.236176344E1,4.794561386E0,6.509116173E0,4.749713242E-1
3.237776344E1,3.658608437E0,2.915352345E0,5.992399454E-1
3.239376344E1,2.518939734E0,8.501331210E-1,1.169969678E0
3.240976344E1,1.408585429E0,3.328897804E-2,1.978060722E0
3.242576344E1,7.882669568E-2,2.382613868E-1,2.163534641E0
3.244176344E1,-1.662495375E0,1.196171880E0,1.479310155E0
3.245776501E1,-3.344680548E0,2.227019310E0,3.690997064E-1
3.247376344E1,-4.063544273E0,1.980148435E0,-8.373768330E-1
3.248976344E1,-4.224971294E0,1.337305307E0,-2.246556044E0
3.250576344E1,-3.770829439E0,1.235350609E0,-3.557065487E0
3.252176344E1,-2.563308954E0,6.279990673E-1,-3.483515739E0
3.253776501E1,-1.395063043E0,-2.086039305E0,-1.290034175E0
3.255376344E1,2.481982708E0,-4.273889542E0,5.429092050E-1
3.256976344E1,2.035928535E1,3.057682812E-1,1.164747524E1
3.258576344E1,2.897897720E1,2.760292435E1,1.506374240E0
3.260176344E1,2.649136305E0,3.830605698E1,1.165211010E1
3.261776344E1,-7.084797382E0,4.229424286E1,1.200567603E0
3.263376344E1,-1.482354641E1,3.851639557E1,2.838565350E0
3.264976344E1,-4.035666466E0,3.947549820E1,7.133859158E0
3.266576344E1,1.073023677E0,4.439099884E1,1.139776993E1
3.268176344E1,-3.233139753E0,3.796974182E1,8.380682945E0
3.269776501E1,-6.419333816E-2,2.846808243E1,5.634744167E0
3.271376501E1,4.955844402E0,1.990808487E1,5.180353642E0
3.272976344E1,6.460245609E0,1.144166946E1,2.531341553E0
3.274576501E1,6.198482990E0,5.395304680E0,9.160024524E-1
3.276176501E1,5.193330288E0,1.308469534E0,-4.449959099E-1
3.277776501E1,3.336042166E0,-1.905075908E0,-4.888672531E-1
3.279376501E1,2.593830347E0,-2.756683826E0,-2.300061584E-1
3.280976501E1,2.608654976E0,-2.187687397E0,7.609059811E-1
3.282576501E1,2.697863102E0,-2.431072444E-1,2.001227140E0
3.284176344E1,3.098288536E0,2.485593319E0,2.449574709E0
3.285776501E1,3.825790882E0,4.357849121E0,2.443493366E0
3.287376501E1,3.474120855E0,4.953201294E0,2.082026720E0
3.288976501E1,2.507772923E0,5.193358898E0,1.546941638E0
3.290576501E1,1.934831023E0,5.765764713E0,9.834710360E-1
3.292176501E1,1.568230867E0,6.855499744E0,1.255490541E0
3.293776501E1,1.286883473E0,8.129981041E0,6.243695021E-1
3.295376501E1,-1.545409262E-1,8.325452805E0,4.299794734E-1
3.296976501E1,-1.524244666E0,8.567124367E0,-2.467368543E-1
3.298576501E1,-1.639903665E0,9.001930237E0,-8.093550801E-1
3.300176344E1,6.605985761E-1,9.046491623E0,-7.906994820E-1
3.301776501E1,2.595534801E0,3.758197546E0,-5.936662555E-1
3.303376344E1,5.481381416E-1,-7.425089836E0,-1.292696476E0
3.304976344E1,-3.673921585E0,-1.925871849E1,-4.836373329E0
3.306576344E1,1.560550332E0,-3.283454132E1,4.834084988E0
3.308176501E1,1.062874222E1,-2.739576721E1,3.700497389E0
3.309776344E1,1.591273594E1,-2.286863899E1,5.797070980E0
3.311376344E1,1.113360214E1,-2.895316887E1,4.589780331E0
3.312976344E1,5.168468952E0,-3.105296898E1,4.481055260E0
3.314576344E1,5.067232132E0,-1.978797340E1,4.165729046E0
3.316176344E1,2.030828953E0,-9.150581360E0,3.118811607E0
3.317776501E1,7.870794535E-1,2.421208322E-1,2.049973011E0
3.319376501E1,1.083184719E0,4.768656254E0,4.764078140E0
3.320976344E1,1.419493437E0,6.811570644E0,4.865563869E0
3.322576344E1,3.139315605E0,8.091041565E0,3.748601675E0
3.324176344E1,4.248425007E0,6.505859852E0,2.304725647E0
3.325776501E1,3.250272512E0,3.251124859E0,1.095366478E0
3.327376344E1,1.130580306E0,1.101706266E0,-2.373898923E-1
3.328976344E1,-1.454036951E0,4.178839624E-1,-8.594609499E-1
3.330576344E1,-3.753198385E0,1.543264151E0,-9.373203516E-1
3.332176344E1,-4.879631996E0,3.257914782E0,-1.036172271E0
3.333776344E1,-5.582129002E0,4.296519756E0,-1.188424349E0
3.335376344E1,-4.638430595E0,4.010728359E0,-7.022959590E-1
3.336976344E1,-3.331876516E0,3.231511593E0,-2.259264588E-1
3.338576344E1,-1.739320517E0,2.545132160E0,1.168274656E-1
3.340176344E1,-1.136671230E-1,2.580892086E0,6.626671553E-1
3.341776344E1,2.018599272E0,2.365279675E0,1.041784167E0
3.343376344E1,6.167300701E0,1.477452278E0,5.322884917E-1
3.344976344E1,1.097435951E1,-2.857719064E-1,-1.425277829E0
