"Time (s)","Acceleration x (m/s^2)","Acceleration y (m/s^2)","Acceleration z (m/s^2)"
2.441790000E-4,1.879984617E0,1.008862019E1,1.897644281E0
1.623792900E-2,1.109731674E0,9.458763123E0,2.613251925E0
3.223792900E-2,9.461597800E-1,9.133237839E0,2.872764349E0
4.823792900E-2,8.480358124E-1,9.427399635E0,2.443866968E0
6.423949100E-2,3.253815770E-1,9.333296776E0,2.321992636E0
8.023792900E-2,-8.330863714E-2,9.433959007E0,2.471984625E0
9.624105400E-2,-1.651999168E-2,9.612518311E0,2.430191517E0
1.122473040E-1,3.238971829E-1,9.718151093E0,2.531494856E0
1.282410540E-1,6.918572187E-1,9.700031281E0,2.839733839E0
1.442410540E-1,7.682418823E-1,9.673293114E0,3.017910480E0
1.602410540E-1,5.189575553E-1,9.554204941E0,3.048556089E0
1.762426160E-1,4.953124523E-1,9.441629410E0,2.923042536E0
1.922379290E-1,5.088157058E-1,9.322427750E0,2.793429852E0
2.082379290E-1,5.670235753E-1,9.208434105E0,2.721690178E0
2.242379290E-1,6.275202632E-1,9.316347122E0,2.654269457E0
2.402379290E-1,7.391187549E-1,9.454683304E0,2.597536325E0
2.562379290E-1,6.509643197E-1,9.530655861E0,2.632865191E0
2.722379290E-1,3.655658662E-1,9.607232094E0,2.672858238E0
2.882379290E-1,-2.763866447E-2,9.758105278E0,2.495524406E0
3.042379290E-1,-6.003509164E-1,9.909035683E0,2.079814196E0
3.202379290E-1,-1.505301595E0,9.703804970E0,1.495389700E0
3.362379290E-1,-3.559928894E0,9.568504333E0,8.320042491E-1
3.522379290E-1,-4.994429111E0,9.631165504E0,-2.718855739E-1
3.682379290E-1,-5.760899544E0,9.697829247E0,-1.327412486E0
3.842394910E-1,-5.804751396E0,9.628090858E0,-1.565032244E0
4.002379290E-1,-5.164504051E0,9.648556709E0,-1.471380591E0
4.162379290E-1,-3.215345860E0,9.737677574E0,-1.255873680E0
4.322379290E-1,-9.287299514E-1,1.009218216E1,-1.430966377E0
4.482379290E-1,1.989198625E-1,1.036571598E1,-1.876881719E0
4.642379290E-1,1.788028121E0,1.143629646E1,-5.847789645E-1
4.802379290E-1,3.638458729E0,1.226192284E1,1.704480201E-1
4.962379290E-1,5.003737926E0,1.271921539E1,4.881202579E-1
5.122379290E-1,5.710132599E0,1.289095688E1,1.374281406E0
5.282379290E-1,5.414870262E0,1.196142197E1,2.545553446E0
5.442379290E-1,3.782005548E0,1.090191078E1,3.826470613E0
5.602379290E-1,2.103038073E0,1.187202263E1,4.684858799E0
5.762379290E-1,1.886056304E0,1.274786949E1,5.151460171E0
5.922379290E-1,2.369732857E0,1.184691238E1,5.749340534E0
6.082379290E-1,2.560129404E0,1.120877171E1,6.247008324E0
6.242379290E-1,2.917660475E0,1.184275627E1,6.099430084E0
6.402379290E-1,3.420452356E0,1.180197716E1,5.835531235E0
6.562379290E-1,3.611471176E0,1.044070244E1,5.668416023E0
6.722379290E-1,3.286827087E0,1.002279854E1,5.180774689E0
6.882379290E-1,3.052444220E0,1.023532677E1,4.999629498E0
7.042379290E-1,2.169003248E0,9.241063118E0,4.529791355E0
7.202379290E-1,1.058993816E0,7.395593166E0,3.468776941E0
7.362379290E-1,2.013715208E-1,5.949428082E0,2.366534472E0
7.522379290E-1,-4.751819968E-1,4.970755577E0,1.614314437E0
7.682379290E-1,-8.528721333E-1,4.268268108E0,9.522410035E-1
7.842379290E-1,-7.259411216E-1,3.355847120E0,7.939555645E-1
8.002379290E-1,-4.970937073E-1,2.094505072E0,1.172670364E0
8.162379290E-1,-1.502945781E0,8.202534914E-1,1.615846634E0
8.322379290E-1,-1.690229774E0,5.881212950E-1,2.380688667E0
8.482379290E-1,-7.482742071E-1,1.893870950E0,2.828605652E0
8.642379290E-1,2.202856988E-1,3.140560627E0,2.902241707E0
8.802379290E-1,1.222843289E0,3.388446569E0,2.526055098E0
8.962379290E-1,2.839580536E0,2.788785458E0,5.216611385E0
9.122379290E-1,4.516709328E0,2.938394308E0,7.026598930E0
9.282379290E-1,6.676135540E0,3.410367966E0,8.479649544E0
9.442379290E-1,1.021492863E1,2.553224564E0,1.253753376E1
9.602379290E-1,1.287174511E1,4.515177250E0,1.352839851E1
9.762379290E-1,1.298906136E1,7.414239407E0,1.486909389E1
9.922379290E-1,1.193472195E1,6.183370590E0,1.530575752E1
1.008237929E0,1.320146561E1,4.461633205E0,1.523806953E1
1.024237929E0,1.728789902E1,3.377098083E0,1.619495583E1
1.040237929E0,2.034945107E1,2.260614634E0,1.777158356E1
1.056237929E0,2.119395256E1,1.891208649E0,1.753488541E1
1.072237929E0,2.215528107E1,1.878720403E0,1.545309639E1
1.088237929E0,1.971159554E1,1.172861934E0,1.226201820E1
1.104237929E0,1.707325363E1,8.237202764E-1,1.001205349E1
1.120237929E0,1.445972347E1,5.896727443E-1,7.942027092E0
1.136237929E0,1.118853474E1,-6.821559370E-2,5.611520290E0
1.152237929E0,7.796659946E0,-4.928129017E-1,4.443523407E0
1.168237929E0,6.287910938E0,2.849100158E-2,3.548963308E0
1.184237929E0,5.062500954E0,-5.051765442E-1,2.116617918E0
1.200237929E0,3.484013557E0,-2.505675554E-1,5.175498128E-1
1.216237929E0,1.591330051E0,1.131384730E0,6.253176332E-1
1.232237929E0,6.537989974E-1,2.580853701E0,1.041439414E0
1.248237929E0,8.034462333E-1,2.629896402E0,9.544724822E-1
1.264237929E0,6.531382203E-1,2.008103132E0,4.469783008E-1
1.280237929E0,4.497938752E-1,2.262175798E0,-6.964253634E-2
1.296237929E0,4.697423577E-1,2.600352049E0,-1.843535304E-1
1.312237929E0,6.478518248E-1,2.506748199E0,-3.072239757E-1
1.328237929E0,7.518271804E-1,2.151554108E0,-2.517934144E-1
1.344237929E0,1.108802676E0,2.055680752E0,-2.707937956E-1
1.360237929E0,1.538360834E0,2.452562809E0,-7.788625360E-1
1.376237929E0,2.096056700E0,2.880205631E0,-9.518579841E-1
1.392237929E0,1.987024665E0,2.692461729E0,-6.332663298E-1
1.408237929E0,1.229345918E0,2.746043921E0,-1.104598522E0
1.424237929E0,6.755862236E-1,3.182066441E0,-1.543704629E0
1.440237929E0,-7.558494806E-1,1.994868040E0,-2.011311293E0
1.456237929E0,-2.835893631E0,-1.191230178E0,-1.097559571E0
1.472237929E0,-5.484311581E0,-6.377588272E0,3.308288813E0
1.488237929E0,-2.372730494E0,-1.200508308E1,7.144470215E0
1.504237929E0,2.666968346E0,-1.300361824E1,9.417716980E0
1.520237929E0,7.168603897E0,-1.215904903E1,1.435159206E1
1.536237929E0,1.071734715E1,-1.534120178E1,1.800791168E1
1.552237929E0,1.124950123E1,-1.990400314E1,1.915280914E1
1.568237929E0,8.451436996E0,-1.925876808E1,1.876771736E1
1.584237929E0,4.852587223E0,-1.629140282E1,1.808882523E1
1.600237929E0,6.041145921E-1,-1.657883263E1,1.605360985E1
1.616237929E0,-4.219234467E0,-1.676720619E1,1.479997826E1
1.632237929E0,-5.489703655E0,-1.520994282E1,1.321823406E1
1.648237929E0,-3.809376001E0,-1.413542366E1,1.159074211E1
1.664237929E0,-4.446606934E-1,-1.167926121E1,9.727027893E0
1.680237929E0,1.565137625E0,-8.669864655E0,7.344357491E0
1.696237929E0,1.785068870E0,-6.051153183E0,5.543142319E0
1.712237929E0,1.779504776E0,-3.369254589E0,3.541158438E0
1.728237929E0,1.635986686E0,-4.842991233E-1,1.437402129E0
1.744239491E0,1.296077132E0,2.224174976E0,2.246718854E-2
1.760237929E0,1.114031672E0,3.663482904E0,-5.266956091E-1
1.776239491E0,1.390830040E0,3.440333843E0,-1.142733335E0
1.792237929E0,1.683315277E0,2.027161121E0,-1.601519823E0
1.808237929E0,1.043776155E0,7.777037621E-1,-1.239047289E0
1.824237929E0,-2.545706928E-1,6.428623199E-1,-1.253019810E0
1.840237929E0,-1.566669822E0,1.558864713E0,-1.640813470E0
1.856237929E0,-2.855535746E0,2.643064737E0,-1.787108779E0
1.872237929E0,-3.503473520E0,3.521095037E0,-1.973463893E0
1.888237929E0,-2.956829548E0,4.012806416E0,-1.975628138E0
1.904237929E0,-1.520796895E0,4.101583481E0,-1.622148275E0
1.920237929E0,3.677685261E-1,3.692414522E0,-6.129060388E-1
1.936237929E0,1.824544549E0,3.413279295E0,-1.396872997E-1
1.952237929E0,2.414245844E0,3.540104866E0,1.255232096E-1
1.968237929E0,2.834974051E0,2.455780506E0,1.465529203E0
1.984237929E0,3.364408970E0,8.700146079E-1,2.416448832E0
2.000237929E0,4.739169121E0,4.189948738E-1,4.224367619E0
2.016237929E0,6.901928425E0,2.243386269E0,7.013909817E0
2.032237929E0,1.212876797E1,7.156105995E0,9.695127487E0
2.048237929E0,1.581493759E1,9.048531532E0,1.216518784E1
2.064237929E0,1.907122421E1,3.721537590E0,1.151070881E1
2.080237929E0,1.703921700E1,1.945135593E0,1.422500610E1
2.096237929E0,1.702021599E1,6.879700184E0,1.693274307E1
2.112237929E0,2.236382675E1,9.433058739E0,1.794362259E1
2.128237929E0,3.020561409E1,9.457307816E0,1.722323608E1
2.144237929E0,3.361373138E1,1.030581284E1,1.632014275E1
2.160237929E0,3.334183502E1,9.463168144E0,1.589537334E1
2.176237929E0,2.938086700E1,8.729968071E0,1.507078171E1
2.192237929E0,2.644670677E1,7.420032978E0,1.276259899E1
2.208237929E0,2.264480019E1,4.664853096E0,1.080778122E1
2.224237929E0,2.001972008E1,3.947598219E0,9.075672150E0
2.240237929E0,1.706922150E1,4.145426273E0,7.166688442E0
2.256237929E0,1.324254036E1,3.312808990E0,5.159035206E0
2.272237929E0,9.590769768E0,1.667427421E0,3.482625008E0
2.288237929E0,6.496293068E0,9.297451377E-1,2.406555653E0
2.304237929E0,3.745441198E0,9.157821536E-1,1.553262353E0
2.320237929E0,1.636685967E0,1.411017895E0,1.210776448E0
2.336237929E0,2.716940045E-1,2.582653999E0,7.638269663E-1
2.352237929E0,-5.886096954E-1,3.610934973E0,1.135809273E-1
2.368237929E0,-8.898003101E-1,3.970678329E0,-2.044073641E-1
2.384237929E0,-7.432655692E-1,3.164636612E0,-2.417856455E-1
2.400237929E0,-5.421429873E-1,2.267395258E0,-8.646132946E-1
2.416237929E0,-1.019067988E-1,1.722474813E0,-1.587633371E0
2.432237929E0,-1.599135101E-1,1.361333489E0,-1.886726737E0
2.448237929E0,1.500781476E-1,1.608147025E0,-1.404907942E0
2.464237929E0,1.120620489E0,2.423152447E0,-7.801745534E-1
2.480237929E0,2.220746517E0,3.481293678E0,-8.602749705E-1
2.496237929E0,2.652018785E0,4.124261379E0,-1.119911790E0
2.512237929E0,1.838076591E0,3.787368298E0,-1.077448249E0
2.528237929E0,4.666777849E-1,2.637739897E0,-8.254824281E-1
2.544237929E0,-6.275202632E-1,1.425258636E0,-5.921627283E-1
2.560237929E0,-1.468028665E0,8.826176524E-1,-8.680226207E-1
2.576237929E0,-2.423593044E0,8.921752870E-2,-6.932841539E-1
2.592237929E0,-2.983750105E0,-1.864977837E0,3.154600039E-2
2.608237929E0,-3.062030792E0,-6.443457603E0,3.650065899E0
2.624237929E0,-1.007499218E0,-1.311838627E1,7.953011036E0
2.640237929E0,4.473086834E0,-1.660751343E1,1.084878922E1
2.656237929E0,8.551792145E0,-1.757802773E1,1.468484592E1
2.672237929E0,9.590396881E0,-2.022963524E1,1.889546013E1
2.688237929E0,9.765202522E0,-2.475439835E1,2.070486450E1
2.704237929E0,7.281734943E0,-2.475436020E1,2.015780830E1
2.720237929E0,3.601932764E0,-2.088342476E1,1.968899536E1
2.736237929E0,4.571297169E-1,-1.800050735E1,1.713031197E1
2.752237929E0,-1.069097281E0,-1.540855598E1,1.392356682E1
2.768237929E0,3.463452160E-1,-1.207039642E1,1.037362576E1
2.784237929E0,1.419445515E0,-8.687705994E0,7.100254059E0
2.800237929E0,9.881157875E-1,-5.414803028E0,3.889457226E0
2.816237929E0,-6.194278598E-2,-2.398501635E0,1.648101449E0
2.832237929E0,-7.771961689E-1,3.295283616E-1,-1.855985075E-2
2.848237929E0,-1.015342593E0,2.177335024E0,-8.499224186E-1
2.864237929E0,-8.359211683E-1,2.579828739E0,-1.298586249E0
2.880237929E0,-7.429973483E-1,1.815379500E0,-1.789799809E0
2.896237929E0,-7.204632163E-1,1.070533872E0,-1.900220513E0
2.912237929E0,-6.979289651E-1,1.217987895E0,-1.583745241E0
2.928237929E0,-6.615083814E-1,1.805678248E0,-1.048842311E0
2.944237929E0,-8.074110150E-1,2.531695843E0,-1.113533735E0
2.960237929E0,-9.586766958E-1,2.790997505E0,-1.257549644E0
2.976237929E0,-9.195266962E-1,2.665704012E0,-1.352417469E0
2.992237929E0,-5.238896608E-1,2.788383007E0,-1.541281700E0
3.008237929E0,1.044254974E-1,3.155174732E0,-1.487220526E0
3.024237929E0,8.564538360E-1,3.532845736E0,-1.083472013E0
3.040237929E0,1.708186269E0,3.313287735E0,-3.422846496E-1
3.056237929E0,2.289096117E0,2.301182032E0,3.247782588E-1
3.072237929E0,2.748103142E0,9.469738007E-1,1.559688330E0
3.088237929E0,3.056514502E0,6.775399446E-1,3.103038549E0
3.104237929E0,4.292640686E0,1.520394683E0,6.389616489E0
3.120237929E0,6.302228451E0,2.966885328E0,7.790579319E0
3.136237929E0,9.836530685E0,5.068515778E0,1.070241737E1
3.152237929E0,1.479831123E1,4.017374992E0,1.300782204E1
3.168237929E0,1.599894619E1,3.729830980E0,1.472083473E1
3.184237929E0,1.855997658E1,5.573921680E0,1.688937950E1
3.200237929E0,2.039858055E1,7.475214958E0,1.844043732E1
3.216237929E0,2.514064980E1,8.150753021E0,1.904447746E1
3.232237929E0,2.893276978E1,8.723187447E0,1.894765472E1
3.248237929E0,3.083173370E1,8.997323990E0,1.785126305E1
3.264237929E0,2.988070107E1,9.325147629E0,1.694019318E1
3.280237929E0,2.798657036E1,8.412190437E0,1.546615982E1
3.296237929E0,2.607982826E1,7.387251854E0,1.334434223E1
3.312237929E0,2.326500320E1,6.371717930E0,1.176657200E1
3.328237929E0,2.014014816E1,5.623903275E0,1.017625809E1
3.344237929E0,1.568483734E1,2.969518900E0,7.293571949E0
3.360237929E0,1.148305035E1,1.743266135E-1,4.533181667E0
3.376237929E0,7.677180290E0,-5.236406326E-1,3.118639231E0
3.392237929E0,4.365931988E0,6.371641159E-1,2.364829540E0
3.408237929E0,2.066885471E0,2.287152052E0,1.969681025E0
3.424237929E0,9.269773960E-1,3.893383741E0,1.523497581E0
3.440237929E0,5.101085901E-1,4.791400909E0,1.068187475E0
3.456237929E0,3.698275387E-1,4.352792740E0,8.388324976E-1
3.472237929E0,3.997933567E-1,3.588611603E0,3.636026382E-1
3.488237929E0,4.122719467E-1,3.148461342E0,-2.691753209E-1
3.504237929E0,2.947358191E-1,2.818205357E0,-1.158736229E0
3.520237929E0,6.223009154E-2,2.441520691E0,-2.099417925E0
3.536237929E0,-5.616605878E-1,1.940902710E0,-2.536034107E0
3.552237929E0,-1.056953907E0,1.699931026E0,-1.903371215E0
3.568237929E0,-3.704404533E-1,1.909404516E0,-1.341768026E0
3.584237929E0,3.069270849E-1,2.217519283E0,-1.693208098E0
3.600237929E0,6.604070663E-1,2.429166555E0,-1.961818457E0
3.616237929E0,9.157725573E-1,2.712266684E0,-2.340073586E0
3.632237929E0,9.820153117E-1,2.536781311E0,-2.554297209E0
3.648237929E0,5.485211611E-1,1.769104362E0,-2.620769739E0
3.664237929E0,3.025408983E-1,7.077835202E-1,-2.508041143E0
3.680237929E0,-1.516698003E0,-1.349697590E0,6.352295727E-2
3.696237929E0,-3.361727238E0,-4.902396202E0,3.355952740E0
3.712237929E0,-2.532538652E0,-9.616311073E0,5.555352688E0
3.728237929E0,1.230581403E0,-1.304026890E1,9.697857857E0
3.744237929E0,4.427922726E0,-1.457362080E1,1.278770924E1
3.760237929E0,4.683211803E0,-1.783221436E1,1.715479088E1
3.776237929E0,5.185419559E0,-2.261675072E1,1.918580055E1
3.792237929E0,5.549357414E0,-2.512591171E1,2.066287041E1
3.808237929E0,5.188014507E0,-2.359194756E1,2.158298111E1
3.824237929E0,4.821088791E0,-2.190776062E1,2.108961296E1
3.840237929E0,5.487797260E0,-1.898455429E1,1.738156891E1
3.856237929E0,5.741295815E0,-1.514945507E1,1.322840500E1
3.872237929E0,4.583239079E0,-1.219085312E1,9.654914856E0
3.888237929E0,3.056801796E0,-9.750693321E0,5.823493481E0
3.904237929E0,1.680413604E0,-7.074684143E0,2.920629263E0
3.920237929E0,8.574498296E-1,-3.249659538E0,7.702721357E-1
3.936237929E0,5.441254377E-1,1.188481688E0,-6.251739264E-1
3.952237929E0,4.112568200E-1,4.674602032E0,-2.188108861E-1
3.968237929E0,2.896792591E-1,6.175843239E0,-1.450503021E-1
3.984258241E0,2.920926083E-3,4.935914993E0,-9.764990807E-1
4.000237929E0,-8.532934785E-1,1.913101196E0,-9.349452853E-1
4.016237929E0,-2.285744429E0,3.224606514E-1,-8.308550119E-1
4.032237929E0,-3.337622643E0,8.539447188E-1,-7.346176505E-1
4.048237929E0,-3.266706228E0,2.166398287E0,-9.660029411E-1
4.064237929E0,-2.654470444E0,2.901580811E0,-1.127104044E0
4.080237929E0,-1.954415560E0,3.296739101E0,-9.565123320E-1
4.096237929E0,-6.329119802E-1,3.324770451E0,-5.636333823E-1
4.112237929E0,8.197554946E-1,3.187199593E0,-7.051403075E-2
4.128237929E0,2.301871777E0,3.051295280E0,6.469516158E-1
4.144237929E0,3.297361612E0,2.709604263E0,8.641344309E-1
4.160237929E0,3.809567690E0,1.975656986E0,1.099752545E0
4.176237929E0,3.856790781E0,1.092981815E0,8.218911290E-1
4.192237929E0,4.375211716E0,2.807345390E-1,1.605570793E0
4.208237929E0,4.546627522E0,-2.506729066E-1,2.648772478E0
4.224237929E0,5.403684616E0,8.501044512E-1,2.540276766E0
4.240237929E0,9.492627144E0,7.819845676E-1,8.375262260E0
4.256237929E0,1.284624195E1,1.878998160E0,9.847035408E0
4.272237929E0,1.286982059E1,3.435104847E0,1.237136745E1
4.288237929E0,1.465737057E1,3.449632883E0,1.336044979E1
4.304237929E0,2.188816643E1,4.034076691E0,1.521433830E1
4.320237929E0,2.602234840E1,4.563769817E0,1.705741501E1
4.336237929E0,3.367861176E1,4.930025578E0,1.626093864E1
4.352237929E0,3.759641647E1,4.916033745E0,1.497208309E1
4.368237929E0,3.692352295E1,4.981213570E0,1.326232624E1
4.384237929E0,3.243302536E1,4.811052799E0,1.195963097E1
4.400237929E0,2.760558510E1,4.193118572E0,1.119025040E1
4.416237929E0,2.424464417E1,3.800172567E0,9.496801376E0
4.432237929E0,2.073078918E1,2.780233145E0,8.116573334E0
4.448237929E0,1.702533150E1,1.540496469E0,6.496809959E0
4.464237929E0,1.312375832E1,4.301326871E-1,4.289652824E0
4.480237929E0,9.792782784E0,3.816261590E-1,2.606165171E0
4.496237929E0,6.481065750E0,1.085904598E0,1.366093159E0
4.512237929E0,3.798104048E0,2.151956320E0,3.239929378E-1
4.528237929E0,2.152435303E0,2.980829000E0,7.963689566E-1
4.544237929E0,9.180231094E-1,3.488581896E0,8.946653008E-1
4.560237929E0,1.357991248E-1,3.466564655E0,6.717459559E-1
4.576237929E0,-3.323822320E-1,3.390160799E0,-3.507122397E-1
4.592237929E0,-6.223966479E-1,3.027717113E0,-8.241225481E-1
4.608237929E0,-6.445190907E-1,2.472147226E0,-1.121980309E0
4.624237929E0,-7.945398092E-1,2.016099691E0,-1.694079757E0
4.640239491E0,-6.595930457E-1,1.744089723E0,-1.929515839E0
4.656237929E0,-3.951773643E-1,1.596281290E0,-1.757976055E0
4.672239491E0,-1.275630668E-2,1.359954476E0,-1.482259870E0
4.688237929E0,2.324291021E-1,1.093029618E0,-1.459313869E0
4.704237929E0,6.106459498E-1,1.397390127E0,-1.565721631E0
4.720237929E0,6.691889763E-1,1.947328687E0,-1.837655187E0
4.736237929E0,4.730750918E-1,2.507648468E0,-2.435123205E0
4.752237929E0,-1.430487633E-1,1.763444424E0,-1.887540817E0
4.768237929E0,-6.507919431E-1,-3.715896904E-1,-1.374635696E0
4.784237929E0,7.210377604E-2,-2.207990170E0,-1.302685142E0
4.800237929E0,-3.816070259E-1,-2.849511623E0,3.206793964E-1
4.816237929E0,-8.132720590E-1,-4.591216564E0,4.830627441E0
4.832237929E0,3.212558985E0,-7.837064743E0,7.673904896E0
4.848237929E0,4.773348808E0,-1.137528324E1,9.702262878E0
4.864237929E0,4.480337143E0,-1.436150360E1,1.174009323E1
4.880237929E0,1.633535028E0,-2.032638931E1,1.461944485E1
4.896237929E0,3.604614139E-1,-2.822066689E1,1.810923386E1
4.912237929E0,6.224349737E-1,-2.931480598E1,2.156914330E1
4.928237929E0,3.123791456E0,-2.372919083E1,2.374641037E1
4.944237929E0,7.730752945E0,-1.951647758E1,2.129386711E1
4.960237929E0,9.216547012E0,-1.651793289E1,1.701472092E1
4.976237929E0,7.878130436E0,-1.320243263E1,1.225045013E1
4.992237929E0,5.408080101E0,-1.012798977E1,7.623320103E0
5.008237929E0,2.971884251E0,-7.091012478E0,4.097925186E0
5.024237929E0,1.499785423E0,-3.579417706E0,1.933911562E0
5.040237929E0,7.760852575E-1,-8.644983917E-2,8.211154342E-1
5.056237929E0,3.094936609E-1,2.802068472E0,3.143107891E-2
5.072237929E0,2.763100266E-1,4.579303265E0,-7.655411959E-1
5.088237929E0,1.083519906E-1,3.924508333E0,-1.358345628E0
5.104237929E0,-7.648516893E-1,1.502313733E0,-1.242370367E0
5.120237929E0,-2.109157801E0,3.746446967E-2,-9.528156519E-1
5.136237929E0,-3.326532364E0,5.339357257E-1,-9.787592292E-1
5.152237929E0,-3.562620163E0,1.762381434E0,-8.944067359E-1
5.168237929E0,-2.952280521E0,2.623374701E0,-1.031498671E0
5.184237929E0,-2.006992102E0,3.102540493E0,-1.357885838E0
5.200237929E0,-1.377978086E0,3.309571981E0,-1.575327277E0
5.216237929E0,-7.720917463E-1,3.167078972E0,-1.285954475E0
5.232237929E0,2.788574398E-1,2.800459385E0,-7.457842231E-1
5.248237929E0,1.708971500E0,2.497784376E0,-2.404161543E-1
5.264237929E0,2.972152233E0,2.229739189E0,3.219435215E-1
5.280237929E0,4.115106106E0,1.888220668E0,8.253387809E-1
5.296237929E0,5.318058014E0,1.284766912E0,1.032197714E0
5.312237929E0,6.614518642E0,1.331951857E0,9.756180644E-1
5.328237929E0,1.016739845E1,1.529760838E0,3.509076118E0
5.344237929E0,1.442184734E1,7.373088002E-1,6.437673569E0
5.360237929E0,1.606789017E1,-1.956637353E-1,7.870449543E0
5.376237929E0,1.732638741E1,9.905866385E-1,1.002480984E1
5.392237929E0,2.001704788E1,2.126913071E0,1.266862106E1
5.408237929E0,2.484710121E1,3.691073656E0,1.481470680E1
5.424237929E0,2.688356209E1,4.890674114E0,1.618969727E1
5.440237929E0,3.209281921E1,4.453837872E0,1.596153069E1
5.456237929E0,3.562074280E1,4.731718063E0,1.501031303E1
5.472237929E0,3.665731812E1,5.184931278E0,1.319215584E1
5.488237929E0,3.150506020E1,3.677752495E0,1.154628754E1
5.504239491E0,2.635941315E1,2.068599939E0,9.065003395E0
5.520237929E0,2.330870247E1,1.807153106E0,7.823494434E0
5.536237929E0,1.880377388E1,1.508337498E0,6.465388775E0
5.552237929E0,1.488922501E1,1.111082077E0,5.503465176E0
5.568237929E0,1.134873676E1,7.308252454E-1,3.702115774E0
5.584237929E0,8.113144875E0,-2.340092808E-1,2.240149260E0
5.600237929E0,5.033943176E0,-4.404756427E-1,1.656011820E0
5.616237929E0,2.991976261E0,1.263276577E0,1.276502252E0
5.632237929E0,1.997865558E0,3.534952641E0,9.840743542E-1
5.648237929E0,1.118389010E0,4.918216705E0,-2.227565274E-2
5.664237929E0,4.535958767E-1,4.683748245E0,-6.425654292E-1
5.680237929E0,-2.207262367E-1,3.762966871E0,-1.172881126E0
5.696237929E0,-9.493009448E-1,3.126568794E0,-1.177123666E0
5.712237929E0,-9.675351977E-1,3.101506233E0,-1.548952818E0
5.728237929E0,-2.795948684E-1,2.879544735E0,-1.592824101E0
5.744237929E0,7.522581518E-2,2.430248737E0,-1.521831155E0
5.760237929E0,6.383037567E-1,2.171617746E0,-1.533821464E0
5.776237929E0,1.432718992E0,2.204398870E0,-1.709977150E0
5.792237929E0,1.452543020E0,2.579560757E0,-2.205059767E0
5.808237929E0,3.217328191E-1,2.898985624E0,-2.147436142E0
5.824237929E0,-9.638097882E-1,2.544777870E0,-1.730825901E0
5.840237929E0,-1.358757377E0,1.606806278E0,-8.302325606E-1
5.856237929E0,-7.547002435E-1,8.821867108E-1,-1.101035833E0
5.872237929E0,-1.595093727E0,-9.657922387E-1,-9.005933404E-1
5.888237929E0,-2.886698484E0,-3.930991888E0,1.580891371E0
5.904237929E0,-5.018725395E-1,-6.957932949E0,5.189795971E0
5.920237929E0,2.643256187E0,-1.127861500E1,8.518961906E0
5.936237929E0,3.361938000E0,-1.541335392E1,1.087803650E1
5.952237929E0,1.563854218E0,-1.862226295E1,1.352155113E1
5.968237929E0,1.395446062E0,-2.314597511E1,1.656066322E1
5.984237929E0,-1.921145797E0,-2.738647842E1,1.660195923E1
6.000237929E0,-2.123369694E0,-2.771969414E1,1.742444611E1
6.016237929E0,2.110000372E0,-2.462500572E1,1.705883026E1
6.032237929E0,5.905576229E0,-2.041999245E1,1.479446220E1
6.048237929E0,6.594043255E0,-1.637908745E1,1.183340931E1
6.064237929E0,6.077345848E0,-1.231644440E1,8.412650108E0
6.080237929E0,4.605160713E0,-8.380290031E0,5.178744793E0
6.096237929E0,2.474618196E0,-4.121350288E0,2.819718361E0
6.112237929E0,9.010530114E-1,-3.861464262E-1,1.242284179E0
6.128237929E0,1.984314471E-1,2.630279541E0,2.339805514E-1
6.144237929E0,-4.618127644E-1,3.753821135E0,-1.040137038E-1
6.160237929E0,-4.066312313E-1,2.873549461E0,-1.029621720E0
6.176237929E0,-2.111781687E-1,1.466170788E0,-1.475920081E0
6.192237929E0,-8.907579184E-1,1.122277260E0,-8.763639927E-1
6.208237929E0,-1.922773838E0,1.718385577E0,-7.007253766E-1
6.224237929E0,-2.275133371E0,2.590861320E0,-4.566891789E-1
6.240237929E0,-1.779236555E0,3.149639368E0,-5.743210912E-1
6.256237929E0,-7.667478919E-1,3.587079048E0,-8.322628140E-1
6.272237929E0,2.595027387E-1,3.713531256E0,-3.628939390E-1
6.288237929E0,1.314876437E0,3.550581932E0,-1.695477962E-1
6.304237929E0,2.553061724E0,2.803428173E0,-2.219712287E-1
6.320237929E0,3.814288855E0,1.849980474E0,-1.842098832E-1
6.336237929E0,4.320250988E0,1.231347561E0,7.687303424E-2
6.352237929E0,4.087869644E0,8.912080526E-1,5.229990482E-1
6.368237929E0,3.838968277E0,3.826988041E-1,1.165976167E0
6.384237929E0,4.214417458E0,-4.156430066E-1,1.985425234E0
6.400237929E0,4.908142090E0,-1.857421696E-1,2.607199430E0
6.416237929E0,7.553897858E0,1.942588210E0,5.256326199E0
6.432237929E0,1.285128021E1,4.648438454E0,7.546131134E0
6.448237929E0,1.897240067E1,3.341185093E0,9.285183907E0
6.464237929E0,2.159514427E1,-7.298101187E-1,9.103339195E0
6.480237929E0,2.470693588E1,-1.093288183E0,1.053548336E1
6.496237929E0,2.822112465E1,2.155384779E0,1.126693153E1
6.512237929E0,3.483317184E1,2.349123716E0,9.528606415E0
6.528237929E0,3.925160599E1,2.244746208E0,9.298246384E0
6.544237929E0,3.685389709E1,3.276771545E0,1.042282200E1
6.560237929E0,3.021814919E1,3.446204424E0,9.442530632E0
6.576237929E0,2.885808754E1,2.625998735E0,7.025372982E0
6.592237929E0,2.610402870E1,8.127165437E-1,6.085055351E0
6.608237929E0,2.289189148E1,-5.280651152E-2,4.712957382E0
6.624237929E0,1.854664421E1,-1.264138520E-1,3.276924849E0
6.640237929E0,1.416857910E1,-5.927373171E-1,1.645668983E0
6.656237929E0,1.017358589E1,-4.912135601E-1,9.722182751E-1
6.672237929E0,6.605075836E0,5.418270230E-1,7.080036998E-1
6.688237929E0,3.585585117E0,1.883690953E0,4.002626240E-1
6.704237929E0,1.946246624E0,3.075208426E0,1.864412725E-1
6.720237929E0,9.761351943E-1,3.740739107E0,-6.971915066E-2
6.736237929E0,5.324704573E-3,3.796102524E0,-3.428496718E-1
6.752237929E0,-3.736008108E-1,3.909798384E0,-7.963210344E-1
6.768237929E0,2.236375958E-1,4.164416790E0,-1.255806684E0
6.784237929E0,1.212423742E-1,4.098222256E0,-1.731170654E0
6.800237929E0,-1.889503896E-1,3.646234989E0,-1.878730059E0
6.816237929E0,-4.438658357E-1,3.211457729E0,-1.858580470E0
6.832237929E0,-2.386157215E-1,2.828145981E0,-1.831736684E0
6.848237929E0,4.887044430E-1,2.554124832E0,-1.722321630E0
6.864237929E0,1.342917323E0,2.377423048E0,-1.727971911E0
6.880237929E0,9.196895361E-1,1.664085031E0,-1.606183767E0
6.896237929E0,-8.724374771E-1,3.909348547E-1,-1.309264421E0
6.912237929E0,-1.238750339E0,5.815994740E-1,-1.932867765E0
6.928237929E0,-1.140607357E0,1.486473680E0,-1.864546895E0
6.944237929E0,-3.348415613E0,-7.557632923E-1,9.564548135E-1
6.960237929E0,-4.009732246E0,-5.560409069E0,3.856513023E0
6.976237929E0,-3.187956333E0,-9.765499115E0,5.918102741E0
6.992237929E0,-1.251822710E0,-1.205043888E1,8.891988754E0
7.008237929E0,-2.306075811E0,-1.427243900E1,1.078844547E1
7.024237929E0,-3.290159941E0,-1.991183853E1,1.613063622E1
7.040237929E0,-4.761205018E-1,-2.589334869E1,1.821952057E1
7.056237929E0,3.753006935E0,-2.462760162E1,1.982629967E1
7.072237929E0,6.917585850E0,-2.123163605E1,1.956766510E1
7.088237929E0,8.809177399E0,-1.949976730E1,1.674380112E1
7.104237929E0,8.098980904E0,-1.654746628E1,1.287464714E1
7.120237929E0,6.903163433E0,-1.248328114E1,8.859503746E0
7.136237929E0,5.897168159E0,-8.402766228E0,5.532473564E0
7.152237929E0,4.533526421E0,-4.672131538E0,2.666815281E0
7.168237929E0,3.259667158E0,-1.419637084E0,5.500056148E-1
7.184237929E0,2.489826202E0,1.745507121E0,-8.291982412E-1
7.200237929E0,1.633621335E0,4.274895191E0,-9.790082574E-1
7.216237929E0,9.446849227E-1,4.715006828E0,-9.337003827E-1
7.232237929E0,2.672216594E-1,3.007222652E0,-1.078128219E0
7.248237929E0,-7.645547986E-1,1.297188163E0,-9.793721437E-1
7.264237929E0,-1.908820391E0,1.179642320E0,-9.258760810E-1
7.280237929E0,-2.301124811E0,2.217720270E0,-1.061387897E0
7.296237929E0,-1.932159066E0,3.544941187E0,-1.097444534E0
7.312237929E0,-1.405865550E0,4.452937603E0,-8.341877460E-1
7.328237929E0,-1.034295201E0,4.441129208E0,-1.932886988E-1
7.344237929E0,-6.835158467E-1,3.863542557E0,-2.541301548E-1
7.360237929E0,3.263775706E-1,3.028722763E0,1.981632859E-1
7.376237929E0,1.725788474E0,2.498368740E0,4.210155904E-1
7.392237929E0,3.689780712E0,2.129326344E0,1.949837923E0
7.408237929E0,4.417397976E0,2.609536171E0,7.418194413E-1
7.424237929E0,5.800623894E0,5.142649412E-1,2.565128565E0
7.440237929E0,6.992486477E0,-6.690261364E-1,1.301717877E0
7.456237929E0,8.074626923E0,-4.290696681E-1,1.323619962E0
7.472237929E0,9.849726677E0,1.897864461E0,4.874900818E0
7.488237929E0,1.252162743E1,4.499384880E0,7.397642612E0
7.504237929E0,1.789192772E1,5.471210480E0,9.256060600E0
7.520237929E0,1.956092453E1,5.242008686E0,9.319200516E0
7.536237929E0,2.326148796E1,4.928579330E0,1.275869179E1
7.552237929E0,2.729491425E1,7.482464314E0,1.406672096E1
7.568237929E0,3.502588654E1,9.853030205E0,1.329753017E1
7.584237929E0,4.036716843E1,7.430883884E0,1.251398468E1
7.600237929E0,3.666732407E1,5.426956177E0,1.242877007E1
7.616237929E0,3.254837799E1,5.826481342E0,1.097042370E1
7.632237929E0,2.696625710E1,5.681469440E0,8.962349892E0
7.648237929E0,2.291725922E1,4.667879581E0,6.922461033E0
7.664237929E0,2.007024765E1,2.571391821E0,5.021148205E0
7.680237929E0,1.736775017E1,8.814014196E-1,3.495122671E0
7.696237929E0,1.392784691E1,1.971864402E-1,2.382680893E0
7.712237929E0,1.051144505E1,4.492959082E-1,7.546715140E-1
7.728237929E0,7.478164673E0,2.606519461E-1,3.333398998E-1
7.744237929E0,4.689656734E0,6.009925008E-1,-1.138682384E-2
7.760237929E0,2.511689901E0,2.224136829E0,-6.918285042E-2
7.776237929E0,1.109386802E0,4.016819477E0,-1.470997557E-2
7.792239491E0,3.978780210E-1,5.042571545E0,-3.683910072E-1
7.808237929E0,2.064855397E-1,4.900116920E0,-8.931329846E-1
7.824237929E0,-7.261039615E-1,3.827801704E0,-5.282566547E-1
7.840237929E0,-5.983780622E-1,3.198318243E0,-4.537682533E-1
7.856237929E0,-1.450311542E-1,3.133636475E0,-7.850970626E-1
7.872237929E0,2.795374095E-1,3.258307457E0,-1.159301162E0
7.888237929E0,4.805162549E-1,3.096229553E0,-8.347527981E-1
7.904237929E0,9.787400365E-1,2.749396086E0,-6.579554081E-1
7.920237929E0,1.163878918E0,2.506460905E0,-1.127649903E0
7.936237929E0,8.035611510E-1,2.586590052E0,-1.309819818E0
7.952237929E0,5.828444958E-1,2.526926756E0,-7.631565332E-1
7.968237929E0,-2.388647199E-1,1.393348813E0,-9.910654426E-1
7.984237929E0,-1.999455333E0,-4.441435635E-1,-1.660963058E0
8.000237929E0,-3.212338686E0,-1.872553080E-1,-2.018934488E0
8.016237929E0,-4.559278488E0,6.452277899E-1,2.083913237E-2
8.032237929E0,-5.623740196E0,-1.563720226E0,2.812305927E0
8.048237929E0,-5.164647579E0,-8.093483925E0,5.114292622E0
8.064237929E0,-6.383324862E-1,-1.309896469E1,7.133687019E0
8.080237929E0,-8.354135752E-1,-1.512343502E1,9.179368973E0
8.096237929E0,-2.545486689E0,-1.990001106E1,1.417010117E1
8.112237929E0,-8.281351924E-1,-2.751107216E1,1.824630737E1
8.128237929E0,2.458011866E0,-2.888933754E1,1.988352966E1
8.144237929E0,5.541830063E0,-2.517655182E1,1.964513206E1
8.160237929E0,8.838320732E0,-2.074368858E1,1.658847427E1
8.176237929E0,8.607231140E0,-1.667296982E1,1.263524628E1
8.192237929E0,6.859014034E0,-1.325896454E1,9.081810951E0
8.208237929E0,5.206354618E0,-9.931454659E0,5.589436054E0
8.224237929E0,3.831718683E0,-6.412035942E0,2.853151083E0
8.240237929E0,2.437392950E0,-3.077219486E0,6.995857358E-1
8.256237929E0,1.137705445E0,7.024587691E-2,-9.547310472E-1
8.272237929E0,3.073101640E-1,3.530940056E0,-1.124968410E0
8.288237929E0,2.676430047E-1,5.547643185E0,-2.665895820E-1
8.304237929E0,2.165411860E-1,4.555083275E0,-5.338878036E-1
8.320237929E0,-1.019039273E0,2.306726933E0,-7.628692389E-1
8.336237929E0,-2.485190868E0,1.381607652E0,-4.089487791E-1
8.352237929E0,-3.118208170E0,2.253681183E0,-5.589982122E-2
8.368237929E0,-2.380583525E0,3.544797659E0,3.827753961E-1
8.384237929E0,-8.290162683E-1,4.394556999E0,3.062663078E-1
8.400237929E0,7.410820127E-1,4.526219368E0,9.223423153E-2
8.416237929E0,1.556623816E0,3.716193676E0,2.178627849E-1
8.432237929E0,2.017047882E0,2.930206060E0,2.808111310E-1
8.448237929E0,2.595659494E0,1.869498014E0,8.199183345E-1
8.464237929E0,3.503492832E0,1.117249370E0,8.415523171E-1
8.480237929E0,4.258183479E0,1.265977263E0,3.956753612E-1
8.496237929E0,4.163076401E0,1.130513310E0,4.187841713E-1
8.512237929E0,4.416200638E0,7.339281440E-1,1.661001444E-1
8.528237929E0,5.314131737E0,4.616978392E-2,9.246694446E-1
8.544237929E0,7.437625885E0,-2.023675144E-1,3.324195862E0
8.560237929E0,9.950570107E0,3.425652504E0,4.846247196E0
8.576237929E0,1.384403133E1,5.521613121E0,8.989040375E0
8.592237929E0,1.617719841E1,3.364581347E0,8.951977730E0
8.608237929E0,1.800899506E1,2.678269148E0,9.025076866E0
8.624237929E0,2.269062424E1,4.939669132E0,1.208233929E1
8.640237929E0,2.938562775E1,9.438910484E0,1.360719585E1
8.656237929E0,3.927043533E1,9.448306084E0,1.257742214E1
8.672237929E0,3.889746475E1,4.808361530E0,1.111011982E1
8.688237929E0,3.384635925E1,3.830186605E0,1.074610615E1
8.704237929E0,3.030556679E1,5.934182167E0,1.116723633E1
8.720237929E0,2.636964226E1,6.368011951E0,9.347786903E0
8.736237929E0,2.397898483E1,4.982209682E0,7.370435238E0
8.752237929E0,2.104654694E1,1.587566376E0,7.088943958E0
8.768237929E0,1.736722183E1,2.475317270E-1,5.949696541E0
8.784237929E0,1.326948929E1,8.776185662E-2,4.381015778E0
8.800237929E0,1.031682587E1,3.628652096E-1,2.791897774E0
8.816237929E0,7.567228794E0,1.451748163E-1,1.846207261E0
8.832237929E0,5.381772995E0,4.507515430E-1,1.408499241E0
8.848237929E0,3.674467564E0,1.138146043E0,1.244400740E0
8.864237929E0,2.637328148E0,2.234537125E0,3.666480482E-1
8.880237929E0,1.750372171E0,2.803954840E0,1.109951921E-2
8.896237929E0,7.400572896E-1,3.148499727E0,-6.253846288E-1
8.912237929E0,6.152427793E-1,3.898545742E0,-1.544394135E0
8.928237929E0,-1.356171519E-1,4.499777794E0,-1.777618170E0
8.944237929E0,-5.042092800E-1,4.710419655E0,-1.756616235E0
8.960237929E0,-1.430774927E-1,4.474265099E0,-1.920436978E0
8.976237929E0,-1.331176162E-1,3.886411905E0,-1.840135455E0
8.992237929E0,-4.143692553E-1,3.372367144E0,-1.424339414E0
9.008237929E0,-6.474112868E-1,2.852250814E0,-1.321417332E0
9.024237929E0,-9.633118510E-1,1.566966653E0,-1.378159881E0
9.040237929E0,-1.196526289E0,1.212327927E-1,-1.207644939E0
9.056237929E0,-1.222421885E0,1.850526482E-1,-1.559793711E0
9.072237929E0,-8.130996227E-1,2.229844570E0,-1.691905737E0
9.088237929E0,-8.749562502E-1,3.788134813E0,3.811569186E-3
9.104237929E0,-1.662093163E0,5.300858021E-1,2.427011728E0
9.120237929E0,-3.489874601E0,-8.311968803E0,6.637694359E0
9.136237929E0,2.909433842E-1,-1.452465439E1,7.679363728E0
9.152237929E0,4.811033249E0,-1.456862068E1,8.995983124E0
9.168237929E0,4.863974094E0,-1.462061405E1,1.316500664E1
9.184237929E0,2.842693090E0,-2.078764725E1,1.636283684E1
9.200237929E0,2.189756155E0,-2.651414680E1,1.654644394E1
9.216237929E0,-8.339004517E-1,-2.268715858E1,1.829121208E1
9.232237929E0,-1.996247053E0,-1.798690987E1,1.919508934E1
9.248237929E0,-2.428678274E0,-1.729755974E1,1.745073318E1
9.264237929E0,-7.985524535E-1,-1.656296349E1,1.362019253E1
9.280237929E0,1.094504476E0,-1.321637630E1,1.042418194E1
9.296237929E0,1.527117610E0,-9.604082108E0,7.637024403E0
9.312237929E0,8.026512861E-1,-6.321545124E0,3.978167295E0
9.328237929E0,-1.166646555E-1,-3.203528166E0,1.396940112E0
9.344237929E0,-6.000826955E-1,4.287536070E-2,-3.460100293E-1
9.360237929E0,-8.322244883E-1,2.721134663E0,-8.322053552E-1
9.376237929E0,-9.525379539E-1,4.423938751E0,-6.029365659E-1
9.392237929E0,-1.047453642E0,4.587913036E0,7.835742831E-2
9.408237929E0,-1.030914545E0,3.511767149E0,4.710256755E-1
9.424237929E0,-9.021351933E-1,2.945863962E0,3.810036778E-1
9.440237929E0,-6.225594878E-1,3.188913822E0,6.692273170E-2
9.456237929E0,-6.390699148E-1,3.705850840E0,-3.551462889E-1
9.472237929E0,-6.814185381E-1,4.070209980E0,-7.719863653E-1
9.488237929E0,-4.836383164E-1,3.875513315E0,-8.403839469E-1
9.504237929E0,2.606615424E-1,3.333226919E0,-9.058988690E-1
9.520237929E0,1.174758196E0,2.517503262E0,-7.111641169E-1
9.536237929E0,1.807679653E0,1.691599250E0,-4.249995351E-1
9.552237929E0,1.761021495E0,1.554698825E0,-6.746572852E-1
9.568237929E0,1.637519002E0,1.665483236E0,-3.735529184E-1
9.584237929E0,1.983299136E0,1.584798694E0,-4.432720840E-1
9.600237929E0,2.943010330E0,6.841766238E-1,3.332633078E-1
9.616237929E0,4.545296192E0,7.317255139E-1,1.743697166E0
9.632237929E0,6.931290627E0,3.846830845E0,3.567331791E0
9.648237929E0,1.287993336E1,7.424333572E0,6.828483582E0
9.664237929E0,2.019151878E1,6.109418392E0,7.759511948E0
9.680237929E0,2.375494385E1,5.063257739E-2,9.142230034E0
9.696237929E0,2.988282585E1,4.983770475E-2,8.845943451E0
9.712237929E0,3.776143265E1,8.228507042E0,1.046967220E1
9.728237929E0,4.098181915E1,9.264209747E0,1.374975681E1
9.744237929E0,2.882617950E1,4.137592316E0,1.300904751E1
9.760237929E0,2.582183075E1,4.203930855E0,1.087635994E1
9.776237929E0,2.641333199E1,7.275921345E0,1.150435925E1
9.792237929E0,2.572143555E1,8.889517784E0,1.114561272E1
9.808237929E0,2.535336113E1,8.221851349E0,9.245306015E0
9.824237929E0,2.305188179E1,5.020076275E0,7.600086689E0
9.840237929E0,1.988204575E1,2.069164753E0,5.946679592E0
9.856237929E0,1.648782158E1,1.155183077E0,4.451683044E0
9.872237929E0,1.398747253E1,1.668729901E0,3.401844501E0
9.888237929E0,1.051017189E1,1.326924086E0,2.501615286E0
9.904237929E0,7.051172733E0,6.503226161E-1,1.430937767E0
9.920237929E0,4.410875797E0,7.298197150E-1,3.590823710E-1
9.936237929E0,2.411114216E0,1.808579922E0,-4.217721522E-1
9.952237929E0,1.180073261E0,3.264082193E0,-2.533161044E-1
9.968237929E0,7.336983085E-1,4.237736702E0,-5.138723254E-1
9.984237929E0,4.585566819E-1,4.252111912E0,-4.660935998E-1
1.000023793E1,-1.325047016E-1,3.752250195E0,-7.644590735E-1
1.001623793E1,-1.959031522E-1,3.398013830E0,-1.257971048E0
1.003223793E1,5.851428956E-3,3.238588810E0,-1.508193851E0
1.004823793E1,-4.233906046E-2,3.139497519E0,-1.244553924E0
1.006423793E1,3.528382778E-1,3.308087587E0,-5.952177048E-1
1.008023793E1,9.738271236E-1,3.491952658E0,-5.200206302E-3
1.009623793E1,1.605120778E0,3.378237724E0,-2.766931057E-1
1.011223793E1,1.230150342E0,2.406431437E0,-1.740776151E-1
1.012823793E1,6.629161239E-1,2.007844687E0,-4.665820301E-1
1.014423793E1,4.138138145E-2,2.147799969E0,-5.163335800E-1
1.016023793E1,-1.904347986E-1,2.104426861E0,-9.008040428E-1
1.017623793E1,-5.595058203E-1,1.009242177E0,-1.145386100E-1
1.019223793E1,-3.333648205E0,-3.198729992E0,1.901024938E0
1.020823793E1,-3.068274975E0,-9.353303909E0,4.218085289E0
1.022423793E1,8.001709580E-1,-1.349319458E1,6.697712421E0
1.024023793E1,3.158267975E0,-1.569129086E1,1.016304111E1
1.025623793E1,6.068477631E0,-1.689224243E1,1.249183369E1
1.027223793E1,6.711790085E0,-1.818239021E1,1.585538960E1
1.028823793E1,4.624275684E0,-2.064141846E1,1.939524651E1
1.030423793E1,3.857049227E0,-2.240720940E1,2.016593933E1
1.032023793E1,1.582308769E0,-2.198841667E1,1.938087082E1
1.033623793E1,-3.284365833E-1,-1.826992416E1,1.616820717E1
1.035223793E1,3.883586824E-1,-1.388032722E1,1.248099232E1
1.036823793E1,1.198824719E-1,-1.192674446E1,9.807531357E0
1.038423793E1,-5.849417448E-1,-1.089608860E1,7.094814301E0
1.040023793E1,-8.251089454E-1,-9.134032249E0,4.712162495E0
1.041623793E1,-4.928033054E-1,-6.261124611E0,2.901954412E0
1.043223793E1,-4.144842178E-2,-2.687539339E0,1.334528089E0
1.044823793E1,4.514506757E-1,1.078214407E0,3.103843145E-2
1.046423793E1,8.193436861E-1,4.157081127E0,-4.535575956E-2
1.048023793E1,1.047913313E0,5.181148529E0,1.375899762E-1
1.049623793E1,1.256103516E0,3.583210230E0,-3.194343746E-1
1.051223793E1,1.343099236E0,1.532509446E0,-1.991209686E-1
1.052823793E1,1.023214817E0,8.658487201E-1,2.619639635E-1
1.054423793E1,1.551825702E-1,1.375248671E0,2.490927465E-2
1.056023793E1,-5.217061043E-1,2.185322046E0,-6.723876595E-1
1.057623793E1,-1.190626979E0,2.587691307E0,-1.365710139E0
1.059223793E1,-1.632701874E0,2.596147776E0,-1.760925770E0
1.060823793E1,-1.448961258E0,2.203173161E0,-1.641579628E0
1.062423793E1,-5.822506547E-1,1.633085012E0,-1.562149525E0
1.064023793E1,7.287567258E-1,1.216905594E0,-1.280486107E0
1.065623793E1,1.688850760E0,9.928849936E-1,-1.116435409E0
1.067223793E1,2.241202593E0,9.432867169E-1,-5.193119645E-1
1.068823793E1,3.349612713E0,1.115937352E0,2.027122676E-1
1.070423793E1,4.826490402E0,8.562144041E-1,1.344880581E0
1.072023793E1,8.255015373E0,6.089317203E-1,2.516957283E0
1.073623793E1,1.290376091E1,7.434283495E-1,4.516709328E0
1.075223793E1,1.731459045E1,1.678584337E0,6.090676785E0
1.076823793E1,2.031062508E1,-4.650688767E-1,8.333775520E0
1.078423793E1,2.212183952E1,-2.458701372E0,1.044038582E1
1.080023793E1,2.493611908E1,-4.312244654E-1,1.181271362E1
1.081623793E1,2.758442116E1,2.159234762E0,1.152619457E1
1.083223793E1,3.083558464E1,2.342285872E0,1.257676029E1
1.084823793E1,3.171782875E1,1.760600209E0,1.269166279E1
1.086423793E1,3.228584671E1,9.028342962E-1,1.148883533E1
1.088023793E1,3.167312431E1,2.289067745E0,1.170879555E1
1.089623793E1,2.794323540E1,2.310739756E0,1.177278805E1
1.091223793E1,2.419388580E1,1.119863868E0,9.706659317E0
1.092823793E1,2.082022667E1,7.006008625E-1,7.459633350E0
1.094423793E1,1.747179222E1,2.512954175E-1,5.580175400E0
1.096023793E1,1.488712692E1,-2.420729548E-1,4.484923840E0
1.097623793E1,1.252031517E1,-2.725750804E-1,3.151363373E0
1.099223793E1,1.075133514E1,-1.644816548E-1,2.599068880E0
1.100823793E1,8.171008110E0,-2.782828510E-1,2.122545958E0
1.102423793E1,5.684706688E0,2.245761305E-1,1.871988058E0
1.104023793E1,3.238636732E0,1.498550057E0,1.603511810E0
1.105623793E1,1.680902004E0,2.808494329E0,9.511109591E-1
1.107223793E1,4.567849338E-1,3.549490213E0,5.040273443E-2
1.108823793E1,-5.425069332E-1,3.592748642E0,-9.052093625E-1
1.110423793E1,-1.102606416E0,3.363594770E0,-1.781094432E0
1.112023793E1,-1.555503249E0,3.108861446E0,-2.210250378E0
1.113623793E1,-1.326857090E0,2.669870138E0,-2.405569315E0
1.115223793E1,-1.233808756E0,2.185944557E0,-2.538054943E0
1.116823793E1,-1.376962900E0,1.581025481E0,-1.978309751E0
1.118423793E1,-1.107854605E0,1.090903640E0,-1.466122866E0
1.120023793E1,-4.570243955E-1,8.522208929E-1,-1.465385556E0
1.121623793E1,-1.322461218E-1,1.271522164E0,-1.616220236E0
1.123223793E1,-2.621171996E-2,1.829409599E0,-1.835002303E0
1.124823793E1,1.717121527E-2,1.866021633E0,-1.185034037E0
1.126423793E1,-5.072643161E-1,9.575944543E-1,7.109821588E-2
1.128023793E1,-1.196238875E0,-1.865083128E-1,1.358393431E0
1.129623793E1,-1.012938842E-1,-1.412483335E0,3.590603590E0
1.131223793E1,1.925675511E0,-8.186839104E0,1.003752708E1
1.132823793E1,4.366554737E0,-1.433688164E1,1.031060028E1
1.134423793E1,5.113325119E0,-1.533768749E1,1.168713284E1
1.136023793E1,4.223563671E0,-1.746209908E1,1.591431618E1
1.137623793E1,4.102187157E0,-2.401167679E1,1.812042999E1
1.139223793E1,2.401528120E0,-2.798237610E1,2.012344742E1
1.140823793E1,1.865016103E0,-2.387897301E1,2.100349808E1
1.142423793E1,3.887331247E0,-1.828534126E1,1.936187172E1
1.144023793E1,3.596914530E0,-1.600047874E1,1.575558090E1
1.145623793E1,2.791869164E0,-1.358844566E1,1.148847198E1
1.147223793E1,2.842511177E0,-1.020864677E1,8.014829636E0
1.148823793E1,2.362215042E0,-6.709654331E0,5.107579231E0
1.150423793E1,1.519082665E0,-3.482059717E0,2.349822760E0
1.152023793E1,8.892831206E-1,-3.688315749E-1,-1.802833825E-1
1.153623793E1,5.591227412E-1,2.195990562E0,-1.379500747E0
1.155223793E1,3.740700781E-1,3.008055925E0,-1.517196059E0
1.156823793E1,2.314235419E-1,1.929649949E0,-1.442755461E0
1.158423793E1,-1.445810497E-1,6.287940145E-1,-1.073368549E0
1.160023793E1,-6.413779259E-1,5.574180484E-1,-8.101786971E-1
1.161623793E1,-1.221483350E0,1.550667048E0,-5.755565166E-1
1.163223793E1,-1.624092460E0,2.729581594E0,-8.551226854E-1
1.164823793E1,-1.348768830E0,3.021386623E0,-7.349816561E-1
1.166423793E1,-9.333843589E-1,2.699108124E0,-7.663935423E-1
1.168023793E1,-6.668139100E-1,2.236385584E0,-7.343495488E-1
1.169623793E1,-1.907987148E-1,2.139966249E0,-6.816292405E-1
1.171223793E1,6.570934653E-1,1.916299939E0,-1.862976253E-1
1.172823793E1,1.496893167E0,1.709258914E0,-3.519476205E-2
1.174423793E1,2.153392792E0,1.672397852E0,-3.044849932E-1
1.176023793E1,2.574523449E0,1.424147844E0,-1.856847107E-1
1.177623793E1,2.958122253E0,1.027715802E0,2.222776785E-2
1.179223793E1,3.067240477E0,5.412811041E-1,5.498140454E-1
1.180823793E1,3.258460760E0,-4.437892139E-1,1.932092071E0
1.182423793E1,6.152360916E0,-2.474551052E-1,4.293138504E0
1.184023793E1,1.048657513E1,2.209082127E0,5.627082348E0
1.185623793E1,1.640493584E1,2.811568499E0,5.923705101E0
1.187223793E1,2.596028137E1,1.375804067E0,4.888001919E0
1.188823793E1,2.884157753E1,9.393793941E-1,7.542769432E0
1.190423793E1,3.245895767E1,2.562820673E0,9.355639458E0
1.192023793E1,3.769225311E1,4.073293686E0,9.154421806E0
1.193623793E1,4.049703217E1,3.942532063E0,1.015256405E1
1.195223793E1,3.861242294E1,2.132841110E0,8.908144951E0
1.196823949E1,3.295480728E1,2.245378047E-1,6.953997135E0
1.198423949E1,2.702122879E1,2.699127197E-1,4.649779320E0
1.200023793E1,2.440859985E1,1.888747454E0,4.105347157E0
1.201623793E1,2.283362770E1,2.670980930E0,5.030648708E0
1.203223793E1,2.049100494E1,6.416364908E-1,4.767248154E0
1.204823949E1,1.798013878E1,-1.199073672E0,3.349785089E0
1.206423793E1,1.438835716E1,-1.498808622E0,2.551299572E0
1.208023793E1,1.083579254E1,-5.781709552E-1,1.915610313E0
1.209623793E1,7.879509449E0,1.153133750E0,3.277183175E-1
1.211223793E1,4.861167908E0,2.525988102E0,-3.495917618E-1
1.212823793E1,2.520960093E0,3.311362743E0,-3.566785753E-1
1.214423793E1,1.311716080E0,3.469619513E0,-5.306891203E-1
1.216023793E1,1.376187205E-1,2.756482601E0,-5.176551342E-1
1.217623793E1,-1.058811784E0,1.996706843E0,-7.176476121E-1
1.219223793E1,-1.031192303E0,2.263803959E0,-3.812143803E-1
1.220823793E1,-5.148299336E-1,3.410224438E0,-1.642326713E-1
1.222423793E1,1.532097608E-1,4.212827682E0,-2.256966084E-1
1.224023793E1,4.808706343E-1,3.989458323E0,-8.101786971E-1
1.225623793E1,-4.116111249E-2,3.128541708E0,-1.611862779E0
1.227223793E1,-7.639705539E-1,2.367798328E0,-1.553875208E0
1.228823793E1,-9.084463120E-1,1.907594562E0,-1.590927839E0
1.230423793E1,-9.888340235E-1,1.251832247E0,-1.921413898E0
1.232023793E1,-1.773844838E0,8.306826353E-1,-2.505503416E0
1.233623793E1,-2.312885046E0,1.268285275E0,-2.859557867E0
1.235223793E1,-2.198423147E0,1.603281975E0,-3.008448601E0
1.236823793E1,-1.759288073E0,8.315924406E-1,-2.851388931E0
1.238423793E1,-2.092790842E0,-1.628574371E0,-8.672373295E-1
1.240023793E1,-2.741543055E0,-4.724727154E0,2.661643505E0
1.241623793E1,4.046583772E-1,-8.433250427E0,7.509212494E0
1.243223793E1,4.684331894E0,-1.205086899E1,9.951058388E0
1.244823793E1,6.399969101E0,-1.610645676E1,1.212204361E1
1.246423793E1,3.938931227E0,-2.005364227E1,1.494893551E1
1.248023793E1,2.614046812E0,-2.390827751E1,1.580035210E1
1.249623793E1,1.083835959E0,-2.672972107E1,1.752837181E1
1.251223793E1,8.697081208E-1,-2.640293884E1,1.891925049E1
1.252823793E1,2.707401514E0,-2.429031563E1,1.763406944E1
1.254423793E1,4.651522160E0,-2.118326378E1,1.418850899E1
1.256023793E1,4.997206688E0,-1.757503891E1,1.121529293E1
1.257623793E1,4.640221596E0,-1.331885719E1,7.797436237E0
1.259223793E1,3.848344088E0,-9.303445816E0,4.675885201E0
1.260823793E1,2.959788799E0,-5.489387035E0,2.172881603E0
1.262423793E1,2.150548697E0,-2.061695099E0,3.152301610E-1
1.264023793E1,1.299917459E0,1.353892326E0,-9.452978373E-1
1.265623793E1,7.251845598E-1,4.474514008E0,-9.748997688E-1
1.267223793E1,7.464163303E-1,5.995425701E0,-3.040157557E-1
1.268823793E1,7.166228890E-1,4.474494457E0,-5.596398115E-1
1.270423793E1,2.574724555E-1,1.188874364E0,-5.027823448E-1
1.272023793E1,-1.070610404E0,-8.760479689E-1,-1.286452413E-1
1.273623793E1,-2.662850380E0,-2.320556045E-1,-6.138924360E-1
1.275223793E1,-3.801139832E0,1.665234327E0,-1.100853920E0
1.276823793E1,-4.089861393E0,3.321868658E0,-1.183099627E0
1.278424105E1,-3.786899090E0,3.936096430E0,-1.121166348E0
1.280023793E1,-3.088070154E0,3.516651392E0,-9.802532196E-1
1.281623793E1,-1.748293996E0,2.821796656E0,-1.238625884E0
1.283223793E1,-2.222968489E-1,2.576036692E0,-1.301076293E0
1.284823793E1,1.094734430E0,2.905565023E0,-1.333915114E0
1.286423793E1,2.091536283E0,2.804213524E0,-8.750807643E-1
1.288023793E1,3.632013559E0,2.205155611E0,-1.112441868E-1
1.289623793E1,4.488955498E0,1.685546756E0,9.475387931E-1
1.291223793E1,5.024586201E0,-5.949208140E-1,4.312618256E0
1.292823793E1,8.439101219E0,-4.453023672E-1,5.144382954E0
1.294423793E1,1.528146172E1,3.818426132E0,6.510169506E0
1.296023793E1,1.752468491E1,6.539503574E0,1.022623920E1
1.297623793E1,2.363435173E1,3.419446707E0,9.064179420E0
1.299223793E1,2.545434761E1,7.350103259E-1,1.086172676E1
1.300823793E1,2.301461029E1,4.535096645E0,1.619451523E1
1.302423793E1,2.600502396E1,9.062207222E0,1.848167610E1
1.304023793E1,3.338513947E1,8.644169807E0,1.867823029E1
1.305623793E1,3.726320267E1,7.542549133E0,1.807773590E1
1.307223793E1,3.696317291E1,8.709224701E0,1.636774826E1
1.310423793E1,2.350611877E1,4.055595875E0,1.068971825E1
1.310824418E1,2.300715828E1,3.466363430E0,1.008948231E1
1.312023793E1,2.181279755E1,2.827399015E0,8.854313850E0
1.313690460E1,0.000000000E0,0.000000000E0,0.000000000E0
1.315357126E1,0.000000000E0,0.000000000E0,0.000000000E0
1.317023793E1,1.134247303E1,3.230735660E-1,3.746858597E0
1.318690459E1,1.134247303E1,3.230735660E-1,3.746858597E0
1.320357126E1,6.105741024E0,9.901748300E-1,1.613921762E0
1.322023793E1,3.924977541E0,2.685738802E0,9.608410001E-1
1.323690459E1,2.488753319E0,4.722476482E0,7.266785502E-1
1.325357126E1,1.876556158E0,5.696122169E0,-6.244077906E-2
1.327023792E1,1.079440236E0,5.104543686E0,-5.085859299E-1
1.328690459E1,6.445382833E-1,4.023819923E0,-1.405185699E0
1.330357126E1,-5.382261276E-1,2.805161715E0,-1.456833363E0
1.332023792E1,-1.300616622E0,2.259647369E0,-1.469982386E0
1.333690459E1,-1.283282638E0,2.216762781E0,-1.332909584E0
1.335357125E1,-3.974662125E-1,2.799204826E0,-1.146640658E0
1.337023792E1,7.196204066E-1,3.647489786E0,-1.013120770E0
1.338690459E1,1.403615117E0,4.410215378E0,-1.178608060E0
1.340357125E1,1.308517456E0,4.410856724E0,-1.234536648E0
1.342023792E1,3.000988066E-1,2.788967371E0,-1.397246599E0
1.343690458E1,-8.854715824E-1,1.304054737E0,-1.952385306E0
1.345357125E1,-1.717111945E0,6.889459491E-1,-2.126357555E0
1.347023792E1,-2.637529373E0,9.252248406E-1,-3.146067142E0
1.348690458E1,-5.512438774E0,9.798510075E-1,-2.157405615E0
1.350357125E1,-5.810727596E0,-1.751502156E0,1.418813467E0
1.352023791E1,-4.447047710E0,-7.369946957E0,4.225488186E0
1.353690458E1,-4.447047710E0,-7.369946957E0,4.225488186E0
1.355357124E1,-4.447047710E0,-7.369946957E0,4.225488186E0
1.357023791E1,-4.447047710E0,-7.369946957E0,4.225488186E0
1.358690458E1,1.471543431E0,-3.024939919E1,1.916194534E1
1.360357124E1,1.471543431E0,-3.024939919E1,1.916194534E1
1.362023791E1,1.471543431E0,-3.024939919E1,1.916194534E1
1.363690458E1,6.925544262E0,-1.716386032E1,1.720758820E1
1.365357124E1,6.925544262E0,-1.716386032E1,1.720758820E1
1.367023791E1,6.919501305E0,-8.934824944E0,7.525780201E0
1.368690457E1,4.987591267E0,-5.002339840E0,3.289901257E0
1.370357124E1,4.987591267E0,-5.002339840E0,3.289901257E0
1.372023791E1,1.818214178E0,2.001131296E0,-6.335344911E-1
1.373690457E1,1.410347700E0,4.155558586E0,-1.073607922E0
1.375357124E1,1.226501584E0,4.360923290E0,-8.167100549E-1
1.377023790E1,5.765716434E-1,2.828002214E0,-1.229460955E0
1.378690457E1,-9.499809742E-1,1.261466503E0,-6.400945783E-1
1.380357124E1,-2.874928713E0,5.555793047E-1,-6.162387729E-1
1.382023790E1,-4.466546059E0,1.130944252E0,2.438254841E-2
1.383690457E1,-4.486657143E0,2.392726898E0,1.891898215E-1
1.385357123E1,-3.095233679E0,3.803792715E0,-1.636867821E-1
1.387023790E1,-1.267691493E0,4.254170895E0,-1.914403774E-2
1.388690456E1,3.019088507E-1,3.824143648E0,4.856781960E-1
1.390357123E1,1.238022566E0,3.506614685E0,-5.027823616E-3
1.392023790E1,2.225046635E0,3.207148075E0,4.650209844E-1
1.393690456E1,2.225046635E0,3.207148075E0,4.650209844E-1
1.395357123E1,3.369886637E0,3.058831990E-1,8.881338835E-1
1.397023790E1,3.369886637E0,3.058831990E-1,8.881338835E-1
1.398690456E1,5.417848587E0,1.012421727E0,1.436137915E0
1.400357123E1,5.417848587E0,1.012421727E0,1.436137915E0
1.402023789E1,1.573339176E1,5.398436546E0,7.645969391E0
1.403690456E1,1.747907066E1,3.842837334E0,8.717498779E0
1.405357122E1,1.730714798E1,2.137485743E0,9.373156548E0
1.407023789E1,2.190514374E1,2.076606035E0,1.059667969E1
1.408690456E1,2.549769402E1,5.164369583E0,1.461379528E1
1.410357122E1,3.327967072E1,7.296923161E0,1.654783249E1
1.412023789E1,3.914509201E1,6.322923660E0,1.573613930E1
1.413690456E1,3.987965393E1,2.681046247E0,1.341183853E1
1.415357122E1,3.929286957E1,-1.934514940E-2,1.015075493E1
1.417023789E1,3.633118820E1,3.883682489E-1,8.000129700E0
1.418690455E1,2.841771889E1,6.284300983E-2,6.723521709E0
1.420357122E1,1.970754433E1,1.848898381E-1,5.183034897E0
1.422023789E1,1.417369366E1,1.232965946E0,3.890261650E0
1.423690455E1,9.767461777E0,2.189622164E0,3.177057743E0
1.425357122E1,6.100358963E0,2.024096489E0,1.946773291E0
1.427023788E1,3.116666555E0,1.963685870E0,1.150375605E0
1.428690455E1,1.326924086E0,2.265824795E0,6.442605257E-1
1.430357122E1,2.973406911E-1,2.795670986E0,2.560550869E-1
1.432023788E1,-2.710236423E-2,3.042130232E0,4.837245122E-2
1.433690455E1,-2.710236423E-2,3.042130232E0,4.837245122E-2
1.435357121E1,-2.317778766E-1,2.108650208E0,-1.215622425E0
1.437023788E1,-2.317778766E-1,2.108650208E0,-1.215622425E0
1.438690454E1,-6.293111444E-1,2.034535170E0,-1.821958780E0
1.440357121E1,-5.055596232E-1,2.244985342E0,-1.785768032E0
1.442023788E1,-2.374090441E-2,2.423410892E0,-1.644854903E0
1.443690454E1,1.525202245E-1,2.286031723E0,-1.490677834E0
1.445357121E1,-2.311553806E-1,1.820033789E0,-1.729216933E0
1.447023788E1,-9.939385056E-1,1.190981269E0,-1.938460588E0
1.448690454E1,-1.660656571E0,7.618637085E-1,-2.022295952E0
1.450357121E1,-2.025676727E0,6.819548607E-1,-1.596606970E0
1.452023787E1,-1.516362906E0,9.135603309E-1,-1.511172295E0
1.453690454E1,-6.008009911E-1,6.593056917E-1,-9.041271806E-1
1.455357120E1,-5.242439508E-1,-8.513780683E-2,-5.084326491E-2
1.457023787E1,-6.239768863E-1,-5.678279996E-1,1.634483099E0
1.458690454E1,4.694933891E-1,-2.667868614E0,5.476410866E0
1.460357120E1,1.991439462E0,-1.048540592E1,1.137631702E1
1.462023787E1,5.737455368E0,-1.636463737E1,1.069213104E1
1.463690454E1,4.498101711E0,-1.990861130E1,1.550007153E1
1.465357120E1,2.566296816E0,-2.492861938E1,1.797404861E1
1.467023787E1,2.258067369E0,-3.157342911E1,2.134349442E1
1.468690453E1,7.698315978E-1,-2.988273048E1,2.393632889E1
1.470357120E1,2.404832125E0,-2.223560143E1,2.409823418E1
1.472023787E1,5.774421692E0,-1.788796997E1,1.987583923E1
1.473690453E1,5.774421692E0,-1.788796997E1,1.987583923E1
1.475357120E1,5.774421692E0,-1.788796997E1,1.987583923E1
1.477023786E1,2.039687395E0,-4.307111263E0,3.208335638E0
1.478690453E1,2.039687395E0,-4.307111263E0,3.208335638E0
1.480357120E1,-6.101958156E-1,1.412013888E0,-8.998942375E-1
1.482023786E1,-1.248786807E0,2.928970814E0,-9.345622659E-1
1.483690453E1,-1.248786807E0,2.928970814E0,-9.345622659E-1
1.485357119E1,2.887407318E-2,2.214090586E0,4.385411441E-1
1.487023786E1,-1.877054106E-3,1.284699917E0,6.123889089E-1
1.488690452E1,-7.768130898E-1,1.535372853E0,-4.304774478E-2
1.490357119E1,-1.562283635E0,2.622742653E0,-4.743105173E-1
1.492023786E1,-1.562283635E0,2.622742653E0,-4.743105173E-1
1.493690452E1,-9.427887797E-1,3.289336205E0,2.190215699E-2
1.495357119E1,6.233543530E-2,2.365978718E0,9.304825962E-2
1.497023786E1,5.500822067E-1,1.354601026E0,6.793786585E-2
1.498690452E1,4.505313039E-1,8.265550733E-1,-2.757737339E-1
1.500357119E1,5.998241305E-1,9.002102613E-1,-3.825168014E-1
1.502023785E1,1.271742463E0,1.484060287E0,-5.612391829E-1
1.503690452E1,2.043010712E0,1.688017607E0,-1.660043597E-1
1.505357119E1,2.541857004E0,1.616430879E0,-3.570520878E-1
1.507023785E1,3.391961336E0,1.732674241E0,-1.778413057E-1
1.508690452E1,5.148836136E0,2.742041111E0,1.870982409E0
1.510357118E1,8.929002762E0,4.179739952E0,3.882772684E0
1.512023785E1,1.161381245E1,4.064540386E0,3.844838858E0
1.513690452E1,1.365515709E1,-7.353321075E0,7.645777702E0
1.515357118E1,1.365515709E1,-7.353321075E0,7.645777702E0
1.517023785E1,1.365515709E1,-7.353321075E0,7.645777702E0
1.518690451E1,1.365515709E1,-7.353321075E0,7.645777702E0
1.520357118E1,1.365515709E1,-7.353321075E0,7.645777702E0
1.522023785E1,3.236183167E1,-1.522578239E0,1.283212566E1
1.523690451E1,3.236183167E1,-1.522578239E0,1.283212566E1
1.525357118E1,3.236183167E1,-1.522578239E0,1.283212566E1
1.527023784E1,3.857636261E1,-2.409514904E0,7.460629463E0
1.528690451E1,3.857636261E1,-2.409514904E0,7.460629463E0
1.530357118E1,2.162468719E1,-1.488197565E0,5.552804947E0
1.532023784E1,1.558394527E1,-6.700125933E-1,4.756043434E0
1.533690451E1,1.078912544E1,6.499778479E-2,3.986920357E0
1.535357117E1,7.268796444E0,1.818013072E0,2.480862379E0
1.537023784E1,4.746006966E0,1.661288738E0,1.656653404E0
1.538690450E1,2.765408278E0,1.095490932E0,1.111350060E0
1.540357117E1,1.332852006E0,1.329797149E0,1.058524370E0
1.542023784E1,1.073895216E0,2.281137943E0,8.196693063E-1
1.543690450E1,1.102529883E0,2.415950775E0,6.354594231E-1
1.545357117E1,6.108087301E-1,2.196028709E0,-5.206909776E-2
1.547023784E1,-1.202942729E-1,1.834092498E0,-2.326972485E-1
1.548690450E1,-2.243366987E-1,1.754269838E0,-4.666873813E-1
1.550357117E1,6.968467236E-1,1.947242498E0,-9.042708278E-1
1.552023783E1,8.262581825E-1,2.033797741E0,-1.060899496E0
1.553690450E1,8.262581825E-1,2.033797741E0,-1.060899496E0
1.555357117E1,3.743573651E-2,1.823634624E0,-6.682791710E-1
1.557023783E1,3.743573651E-2,1.823634624E0,-6.682791710E-1
1.558690450E1,-5.198769569E-1,1.390044808E0,-1.033768415E0
1.560357116E1,-1.195673943E0,7.780389190E-1,-1.058399916E0
1.562023783E1,-1.349314570E0,8.159726858E-1,-1.433667064E0
1.563690450E1,-1.311878920E0,9.185976982E-1,-1.434557796E0
1.565357116E1,-1.476312637E0,3.005489111E-1,-1.413622975E0
1.567023783E1,-1.483198404E0,-7.923658490E-1,-6.882851124E-1
1.568690449E1,-9.029204845E-1,-1.636762500E0,9.374736249E-2
1.570357116E1,-1.398213767E-2,-5.015995979E0,4.050242424E0
1.572023783E1,3.383648634E0,-1.126483440E1,7.119187355E0
1.573690449E1,7.174857616E0,-1.614981842E1,9.854515076E0
1.575357116E1,7.356232643E0,-2.126169968E1,1.582654476E1
1.577023782E1,8.279044151E0,-2.584878731E1,1.995834351E1
1.578690449E1,9.372648239E0,-2.705689240E1,2.240152931E1
1.580357116E1,7.070834160E0,-2.514230728E1,2.523403358E1
1.582023782E1,5.527685165E0,-2.208713341E1,2.554022217E1
1.583690449E1,5.824250221E0,-1.919380569E1,2.209970665E1
1.585357115E1,5.678969860E0,-1.685478783E1,1.672486877E1
1.587023782E1,4.941239834E0,-1.363065052E1,1.115506458E1
1.588690448E1,3.474657059E0,-9.489666939E0,6.323756695E0
1.590357115E1,1.216608763E0,-5.122969151E0,2.676257849E0
1.592023782E1,-6.438295841E-1,1.911377430E0,-4.750766456E-1
1.593690448E1,-6.438295841E-1,1.911377430E0,-4.750766456E-1
1.595357115E1,-6.438295841E-1,1.911377430E0,-4.750766456E-1
1.597023782E1,5.766961575E-1,3.708474874E0,3.595612049E-1
1.598690448E1,5.766961575E-1,3.708474874E0,3.595612049E-1
1.600357115E1,3.733039647E-2,1.690555453E0,1.090692997E0
1.602023781E1,-6.205770969E-1,1.587365389E0,9.468014240E-1
1.603690448E1,-8.019617796E-1,2.022324800E0,6.454097033E-1
1.605357114E1,-8.820047379E-1,2.456336021E0,3.190992177E-1
1.607023781E1,-7.080324888E-1,2.542632580E0,-1.851484030E-1
1.608690448E1,-6.561836600E-1,2.216571093E0,-5.290706754E-1
1.610357114E1,-6.050243378E-1,1.708837509E0,-9.700347781E-1
1.612023781E1,-5.114493966E-1,1.147081137E0,-9.615114331E-1
1.613690448E1,-2.327164076E-2,8.619796634E-1,-8.506311178E-1
1.615357114E1,9.662806392E-1,1.068541765E0,-8.872624040E-1
1.617023781E1,2.034353256E0,1.449804068E0,-7.085879445E-1
1.618690447E1,3.113094330E0,1.399238467E0,-4.740040600E-1
1.620357114E1,4.516230583E0,1.242705584E0,-2.559688985E-1
1.622023780E1,5.802951336E0,1.316571474E0,1.955105066E-1
1.623690447E1,6.700968266E0,1.033241749E0,1.548588872E0
1.625357114E1,7.565447807E0,-9.834422916E-2,4.161228180E0
1.627023780E1,1.129350662E1,-2.599049807E-1,6.593813419E0
1.628690447E1,1.410554504E1,9.301664829E-1,8.808670044E0
1.630357114E1,1.559046650E1,9.802819490E-1,1.025786114E1
1.632023780E1,2.049957657E1,1.301248670E0,1.280549335E1
1.633690447E1,2.616730309E1,3.650333881E0,1.585486317E1
1.635357113E1,2.616730309E1,3.650333881E0,1.585486317E1
1.637023780E1,3.507633972E1,4.561873436E0,1.496650028E1
1.638690446E1,3.525203705E1,4.289566994E0,1.364059067E1
1.640357113E1,3.525203705E1,4.289566994E0,1.364059067E1
1.642023780E1,2.869689178E1,1.898621082E0,9.919953346E0
1.643690446E1,2.869689178E1,1.898621082E0,9.919953346E0
1.645357113E1,2.869689178E1,1.898621082E0,9.919953346E0
1.647023780E1,1.680739212E1,1.494441509E0,5.691400528E0
1.648690446E1,1.290762043E1,6.450745463E-1,4.282824516E0
1.650357113E1,9.899449348E0,-1.107366160E-1,3.046123743E0
1.652023779E1,7.456674099E0,-5.912720412E-2,2.046755075E0
1.653690446E1,7.456674099E0,-5.912720412E-2,2.046755075E0
1.655357112E1,3.252858162E0,2.239651203E0,4.793095887E-1
1.657023779E1,2.299879551E0,3.512724876E0,-7.211335748E-2
1.658690446E1,1.368286252E0,4.120200634E0,-8.688079119E-1
1.660357112E1,2.748639286E-1,3.988059998E0,-1.476657510E0
1.662023779E1,2.748639286E-1,3.988059998E0,-1.476657510E0
1.663690446E1,-1.023233891E0,3.052980661E0,-1.583036661E0
1.665357112E1,-1.278858066E0,2.369196892E0,-1.389824510E0
1.667023779E1,-9.120663404E-1,1.774898291E0,-1.339239836E0
1.668690445E1,-3.265595436E-1,1.503089309E0,-1.472673416E0
1.670357112E1,1.106121205E-2,1.809815407E0,-1.382306814E0
1.672023779E1,1.106121205E-2,1.809815407E0,-1.382306814E0
1.673690445E1,1.106121205E-2,1.809815407E0,-1.382306814E0
1.675357112E1,-7.630895376E-1,8.024023175E-1,-1.798304081E0
1.677023778E1,-7.630895376E-1,8.024023175E-1,-1.798304081E0
1.678690445E1,-2.396844864E0,-3.228916228E-1,-8.449521065E-1
1.680357112E1,-2.396844864E0,-3.228916228E-1,-8.449521065E-1
1.682023778E1,-2.396844864E0,-3.228916228E-1,-8.449521065E-1
1.683690445E1,7.722736597E-1,-4.793220520E0,5.637646198E0
1.685357111E1,3.319101095E0,-1.148901749E1,8.886539459E0
1.687023778E1,6.936021328E0,-1.455479336E1,1.067626286E1
1.688690445E1,6.826749802E0,-1.664699936E1,1.604396629E1
1.690357111E1,7.136492729E0,-2.082931519E1,2.093470955E1
1.692023778E1,7.297794819E0,-2.546636772E1,2.302506638E1
1.693690444E1,4.135715485E0,-2.725649261E1,2.298129082E1
1.695357111E1,1.738477826E0,-2.466112900E1,2.259196472E1
1.697023778E1,1.651357532E0,-2.044984436E1,1.972090530E1
1.698690444E1,2.354927301E0,-1.712938309E1,1.614439964E1
1.700357111E1,3.089755535E0,-1.402583694E1,1.175954342E1
1.702023777E1,2.204159498E0,-1.048016834E1,6.980639458E0
1.703690444E1,3.122518063E-1,-6.488516808E0,2.985042810E0
1.705357110E1,-7.203674316E-1,-2.780443907E0,1.149044394E0
1.707023777E1,-9.558418989E-1,1.063399076E0,-4.533756077E-1
1.708690444E1,-9.119897485E-1,3.743985653E0,-5.289270878E-1
1.710357110E1,-1.007058740E0,4.044295311E0,2.860592008E-1
1.712023777E1,-1.169117451E0,2.593600273E0,-8.960060030E-2
1.713690444E1,-1.169117451E0,2.593600273E0,-8.960060030E-2
1.715357110E1,-1.328331828E0,5.819633603E-1,-8.066257238E-1
1.717023777E1,-1.264081001E0,1.803006172E0,-8.813726902E-1
1.718690443E1,-1.264081001E0,1.803006172E0,-8.813726902E-1
1.720357110E1,-4.372195303E-1,3.590775967E0,-1.430966556E-1
1.722023776E1,-4.372195303E-1,3.590775967E0,-1.430966556E-1
1.723690443E1,4.543045759E-1,3.135561466E0,-1.448204666E-1
1.725357110E1,8.648048043E-1,2.656443357E0,-8.581776172E-2
1.727023776E1,9.945322275E-1,2.419254541E0,-2.727091312E-1
1.728690443E1,8.613476157E-1,2.098929644E0,-3.112845123E-1
1.730357110E1,9.169217944E-1,1.545840263E0,-2.075677067E-1
1.732023776E1,1.317462206E0,9.930669665E-1,2.614851296E-1
1.733690443E1,1.686150074E0,8.439561129E-1,7.485998273E-1
1.735357109E1,2.724745035E0,7.522198558E-1,1.232324362E0
1.737023776E1,4.929421902E0,3.498886526E-1,1.994609356E0
1.738690442E1,1.041789913E1,-1.019872427E0,6.655248642E0
1.740357109E1,1.908434296E1,4.679611027E-1,8.557786942E0
1.742023776E1,2.090801811E1,1.831018448E0,1.037559891E1
1.743690442E1,2.182347488E1,2.777561247E-1,1.001513767E1
1.745357109E1,2.398224068E1,1.300970912E0,9.822165489E0
1.747023776E1,2.475894737E1,3.258278608E0,1.055815125E1
1.748690442E1,2.701071358E1,1.763224244E0,1.144865131E1
1.750357109E1,2.914971352E1,2.262357950E0,1.282807541E1
1.752023775E1,2.914971352E1,2.262357950E0,1.282807541E1
1.753690442E1,3.223374939E1,2.620214224E-2,9.748269081E0
1.755357108E1,3.223374939E1,2.620214224E-2,9.748269081E0
1.757023775E1,2.634846687E1,1.993881583E0,9.037162781E0
1.758690442E1,2.113568687E1,6.680971384E-1,7.127395153E0
1.760357108E1,1.704828644E1,-7.884393334E-1,5.804636955E0
1.762023775E1,1.391150856E1,-1.422816634E0,4.494070053E0
1.763690442E1,1.391150856E1,-1.422816634E0,4.494070053E0
1.765357108E1,6.961055279E0,-4.525136948E-1,1.219117880E0
1.767023775E1,4.087754726E0,1.470020652E0,-4.711789079E-3
1.768690441E1,1.997808099E0,3.381503344E0,-8.266986609E-1
1.770357108E1,3.654509485E-1,3.904492855E0,-4.299411476E-1
1.772023775E1,-6.410619020E-1,2.905631781E0,-2.484894097E-1
1.773690441E1,-1.301286936E0,1.704949379E0,-5.761215091E-1
1.775357108E1,-2.002558231E0,1.211513877E0,-5.126751661E-1
1.777023774E1,-2.125409365E0,1.582327843E0,-5.170134902E-1
1.778690441E1,-1.349870086E0,1.930569291E0,-6.954581141E-1
1.780357108E1,-9.706859589E-1,2.016942501E0,-6.180583835E-1
1.782023774E1,-5.233150125E-1,2.109770536E0,-5.796650052E-1
1.783690441E1,8.824069798E-2,2.174844980E0,-4.257178009E-1
1.785357107E1,2.809739411E-1,1.966989875E0,-6.451320052E-1
1.787023774E1,1.218935996E-1,1.485889435E0,-9.123919606E-1
1.788690441E1,-3.822103515E-2,9.195650220E-1,-1.330055714E0
1.790357107E1,-5.998433232E-1,9.868037701E-1,-1.571439028E0
1.792023774E1,-8.747455478E-1,1.392745495E0,-1.706041098E0
1.793690440E1,-8.747455478E-1,1.392745495E0,-1.706041098E0
1.795357107E1,-1.204589963E0,-2.128617764E0,-7.291206121E-1
1.797023774E1,-1.204589963E0,-2.128617764E0,-7.291206121E-1
1.798690440E1,-1.204589963E0,-2.128617764E0,-7.291206121E-1
1.800357107E1,-1.204589963E0,-2.128617764E0,-7.291206121E-1
1.802023773E1,-1.204589963E0,-2.128617764E0,-7.291206121E-1
1.803690440E1,1.303325844E1,-2.379851723E1,2.162198830E1
1.805357106E1,1.682700539E1,-2.803535461E1,2.339496040E1
1.807023773E1,1.682700539E1,-2.803535461E1,2.339496040E1
1.808690440E1,1.387734890E1,-2.030159569E1,2.326607704E1
1.810357106E1,1.387734890E1,-2.030159569E1,2.326607704E1
1.812023773E1,7.617918968E0,-1.422878933E1,1.421986294E1
1.813690440E1,5.690969944E0,-1.009639645E1,9.895580292E0
1.815357106E1,3.964156151E0,-5.867785931E0,5.957568645E0
1.817023773E1,2.075408936E0,-2.725674152E0,2.772102594E0
1.818690439E1,2.075408936E0,-2.725674152E0,2.772102594E0
1.820357106E1,-6.203855872E-1,1.523851871E0,-1.514073968E0
1.822023772E1,-6.739869118E-1,2.419561148E0,-1.507877827E0
1.823690439E1,-7.186052799E-1,2.139755726E0,-1.131662488E0
1.825357106E1,-1.235561252E0,1.299314141E0,-1.022621036E0
1.827023772E1,-2.251526356E0,6.057043076E-1,-6.043444276E-1
1.828690439E1,-3.367866039E0,6.138350368E-1,-7.161344886E-1
1.830357106E1,-3.893738031E0,1.484615684E0,-8.168537617E-1
1.832023772E1,-3.893738031E0,1.484615684E0,-8.168537617E-1
1.833690439E1,-3.893738031E0,1.484615684E0,-8.168537617E-1
1.835357105E1,-1.572693586E0,3.362732887E0,-5.070057511E-1
1.837023772E1,-1.572693586E0,3.362732887E0,-5.070057511E-1
1.838690438E1,1.038757920E0,2.299314737E0,-1.995040476E-1
1.840357105E1,1.790278673E0,2.030436277E0,-3.054809868E-1
1.842023772E1,1.947740555E0,1.488149524E0,-3.433285356E-1
1.843690438E1,2.929822922E0,9.652367830E-1,4.662946984E-2
1.845357105E1,2.929822922E0,9.652367830E-1,4.662946984E-2
1.847023772E1,6.498792648E0,1.527309120E-1,1.924928546E0
1.848690438E1,8.045111656E0,-4.511058927E-1,2.020294428E0
1.850357105E1,1.178399181E1,-6.458119750E-1,4.184586048E0
1.852023771E1,1.745012856E1,4.343177676E-1,7.247919083E0
1.853690438E1,1.765784264E1,-1.726343870E0,9.808192253E0
1.855357104E1,2.089005089E1,-2.998833418E0,9.650116920E0
1.857023771E1,2.645352554E1,-6.407841295E-2,1.349750423E1
1.858690438E1,2.880724525E1,1.799807668E0,1.444136524E1
1.860357104E1,3.501332474E1,1.237189293E0,1.344775200E1
1.862023771E1,3.996403503E1,3.888183506E-3,1.218776989E1
1.863690438E1,4.304967880E1,-1.282171607E0,1.067036343E1
1.865357104E1,4.106063843E1,-2.081643581E0,8.259966850E0
1.867023771E1,2.814140892E1,-1.950671077E0,7.137440681E0
1.868690437E1,2.123249817E1,-1.117268562E0,5.663905144E0
1.870357104E1,1.554743862E1,1.733306348E-1,5.322521210E0
1.872023771E1,1.031308079E1,-1.469943970E-1,4.774402142E0
1.873690437E1,1.031308079E1,-1.469943970E-1,4.774402142E0
1.875357104E1,4.411115646E0,4.259763658E-2,1.405415535E0
1.877023770E1,3.215154409E0,1.211360693E0,-2.090616897E-2
1.878690437E1,3.215154409E0,1.211360693E0,-2.090616897E-2
1.880357104E1,1.594183922E0,3.896065235E0,-1.263171315E0
1.882023770E1,3.570233583E-1,3.997263432E0,-2.038490295E0
1.883690437E1,-1.420585155E0,3.085149288E0,-2.231118202E0
1.885357103E1,-2.316035986E0,1.923099399E0,-2.140847206E0
1.887023770E1,-1.822313070E0,1.047587752E0,-1.840623856E0
1.888690436E1,-3.213497698E-1,9.032461047E-1,-1.549584866E0
1.890357103E1,1.075504184E0,1.115956545E0,-1.154656529E0
1.892023770E1,1.782751322E0,1.297762752E0,-9.633597136E-1
1.893690436E1,1.691350222E0,1.429319263E0,-9.593662024E-1
1.895357103E1,1.132083893E0,1.646818161E0,-9.390155077E-1
1.897023770E1,5.517964363E-1,1.790020108E0,-9.630724192E-1
1.898690436E1,-2.484894097E-1,1.439604759E0,-9.591554999E-1
1.900357103E1,-9.886425138E-1,9.369660616E-1,-1.107653499E0
1.902023769E1,-1.210996866E0,7.317351103E-1,-1.213151574E0
1.903690436E1,-1.175868988E0,3.550313711E-1,-1.065036729E-1
1.905357102E1,-1.243376017E0,-1.180331945E0,9.954994917E-1
1.907023769E1,-9.626606107E-2,-5.174655437E0,3.779237747E0
1.908690436E1,2.534827709E0,-9.435913086E0,4.029508591E0
1.910357102E1,3.820283890E0,-1.141531467E1,7.081263065E0
1.912023769E1,7.166583061E0,-2.129411507E1,1.659294701E1
1.913690436E1,7.166583061E0,-2.129411507E1,1.659294701E1
1.915357102E1,8.185316086E0,-2.706751442E1,2.191240501E1
1.917023769E1,6.465915203E0,-2.334613800E1,2.397523880E1
1.918690435E1,6.465915203E0,-2.334613800E1,2.397523880E1
1.920357102E1,6.465915203E0,-2.334613800E1,2.397523880E1
1.922023768E1,7.469526291E0,-1.379840755E1,1.340988541E1
1.923690435E1,6.353081226E0,-1.110899067E1,9.013259888E0
1.925357102E1,4.534522533E0,-8.579947472E0,5.359813213E0
1.927023768E1,2.916836739E0,-5.407266140E0,2.052788496E0
1.928690435E1,1.566976309E0,-1.515376449E0,-5.283524469E-2
1.930357102E1,4.762641788E-1,2.424157858E0,-1.135981679E0
1.932023768E1,-5.944515467E-1,5.351261139E0,-5.441254377E-1
1.933690435E1,-1.244956136E0,4.997407913E0,1.474157870E-1
1.935357101E1,-1.379835963E0,1.756319284E0,-2.515827119E-2
1.937023768E1,-1.463173270E0,-9.211451411E-1,6.805279106E-2
1.938690434E1,-1.643858910E0,-1.054827809E0,-1.878969371E-1
1.940357101E1,-1.666163325E0,7.622085214E-1,-6.009542346E-1
1.942023768E1,-1.596769810E0,2.366955519E0,-7.207792401E-1
1.943690434E1,-1.434634447E0,3.056169748E0,-8.590395451E-1
1.945357101E1,-1.134229183E0,2.979526520E0,-8.066065907E-1
1.947023768E1,-5.438955426E-1,2.583707571E0,-6.168612838E-1
1.948690434E1,2.383188307E-1,2.214071512E0,-2.896888554E-1
1.950357101E1,9.941683412E-1,1.946304083E0,-1.036018953E-1
1.952023767E1,1.900344968E0,1.796407819E0,-3.308691084E-1
1.953690434E1,4.329215050E0,1.258507371E0,6.943184882E-2
1.955357101E1,4.329215050E0,1.258507371E0,6.943184882E-2
1.957023767E1,9.572486877E0,-8.552088402E-3,-2.786850743E-2
1.958690434E1,1.201099110E1,1.778930187E0,1.954664588E0
1.960357100E1,1.201099110E1,1.778930187E0,1.954664588E0
1.962023767E1,1.204068947E1,1.105527520E0,5.380661488E0
1.963690434E1,1.204068947E1,1.105527520E0,5.380661488E0
1.965357100E1,1.435270309E1,1.403184175E0,9.390958786E0
1.967023767E1,2.083357620E1,1.770981431E0,1.289656830E1
1.968690433E1,2.083357620E1,1.770981431E0,1.289656830E1
1.970357100E1,2.835350609E1,-4.622820318E-1,1.317007256E1
1.972023767E1,3.240724564E1,-1.489806414E0,1.232653809E1
1.973690433E1,3.356873703E1,-5.919902921E-1,1.212664127E1
1.975357100E1,3.286874390E1,-1.652190685E-1,1.194063091E1
1.977023766E1,2.983874321E1,-2.316840410E0,1.072012424E1
1.978690433E1,2.591557693E1,-4.895682812E0,8.576260567E0
1.980357100E1,2.288562965E1,-5.013774395E0,6.844189644E0
1.982023766E1,1.890328598E1,-3.488667965E0,5.381753445E0
1.983690433E1,1.510696316E1,-1.438512921E0,3.401174307E0
1.985357099E1,1.127718830E1,-5.537213683E-1,2.564793348E0
1.987023766E1,7.812212944E0,-2.300349027E-1,1.825693727E0
1.988690432E1,4.981682777E0,2.853888553E-3,1.704058766E0
1.990357099E1,2.603215694E0,6.841670275E-1,1.426474929E0
1.992023766E1,8.672373295E-1,1.733248830E0,9.935171008E-1
1.993690432E1,8.672373295E-1,1.733248830E0,9.935171008E-1
1.995357099E1,8.672373295E-1,1.733248830E0,9.935171008E-1
1.997023766E1,8.672373295E-1,1.733248830E0,9.935171008E-1
1.998690432E1,-2.138309479E-1,1.109923244E0,-1.577539563E0
2.000357099E1,-2.138309479E-1,1.109923244E0,-1.577539563E0
2.002023765E1,1.434126943E-1,2.964988947E0,-1.205901980E0
2.003690432E1,5.121101737E-1,2.940807581E0,-1.037781119E0
2.005357098E1,5.121101737E-1,2.940807581E0,-1.037781119E0
2.007023765E1,1.089859724E0,7.991558313E-1,-5.885331035E-1
2.008690432E1,8.465609550E-1,-1.935759932E-1,-3.329855576E-2
2.010357098E1,8.171410561E-1,-1.111292616E-1,4.845097959E-1
2.012023765E1,3.570176125E0,1.112298250E0,3.960296810E-1
2.013690432E1,5.332318306E0,1.976107001E0,1.461526155E0
2.015357098E1,6.895875454E0,2.275228977E0,2.052568436E0
2.017023765E1,7.459068298E0,1.163965106E0,3.888863564E0
2.018690431E1,5.712220669E0,-2.112672329E0,4.307743549E0
2.020357098E1,-2.397840917E-1,-9.052093506E0,6.299604416E0
2.022023764E1,-1.318362474E0,-1.127670860E1,5.540450573E0
2.023690431E1,-5.050098896E0,-1.140736485E1,1.002056694E1
2.025357098E1,-8.038646698E0,-1.766546440E1,1.375186348E1
2.027023764E1,-2.639655352E0,-2.177834702E1,1.848553467E1
2.028690431E1,2.002347469E0,-2.045714951E1,2.187318802E1
2.030357098E1,6.214839935E0,-2.087043762E1,2.269772148E1
2.032023764E1,5.445487499E0,-2.146948624E1,2.101232719E1
2.033690431E1,5.445487499E0,-2.146948624E1,2.101232719E1
2.035357097E1,2.553761005E0,-1.414642811E1,1.122935200E1
2.037023764E1,2.240024567E0,-1.125759411E1,7.997725487E0
2.038690430E1,2.240024567E0,-1.125759411E1,7.997725487E0
2.040357097E1,1.307760835E0,-4.253710747E0,3.470874310E0
2.042023764E1,1.071366906E0,-2.532969713E-1,1.641656280E0
2.043690430E1,8.844659925E-1,3.376351118E0,4.269531965E-1
2.045357097E1,6.520464420E-1,5.344346523E0,1.275439113E-1
2.047023764E1,6.183265448E-1,4.652652264E0,-7.148416042E-1
2.048690430E1,7.776654959E-1,1.734043717E0,-1.524388194E0
2.050357097E1,3.280439377E-1,-6.703476906E-1,-1.739081025E0
2.052023763E1,-1.016913176E0,-1.044140100E0,-1.728833914E0
2.053690430E1,-2.682396412E0,1.703139395E-1,-1.448109031E0
2.055357097E1,-3.743161917E0,1.796752572E0,-1.116444945E0
2.057023763E1,-3.968925476E0,2.794157982E0,-9.016180634E-1
2.058690430E1,-3.602507353E0,2.916942120E0,-1.088107228E0
2.060357096E1,-2.778222084E0,2.559382677E0,-1.226099372E0
2.062023763E1,-2.119366407E0,2.394192219E0,-1.813818455E0
2.063690430E1,-1.131269932E0,2.559143066E0,-2.336865425E0
2.065357096E1,9.105244875E-1,2.584090471E0,-1.952021360E0
2.067023763E1,2.877887964E0,1.909663200E0,-5.244737864E-1
2.068690429E1,4.588210106E0,1.495312929E0,6.865613163E-2
2.070357096E1,7.055855751E0,1.994235992E0,-1.164252385E-1
2.072023763E1,9.573971748E0,1.764229774E0,1.653876185E0
2.073690429E1,1.694766426E1,3.276033998E-1,7.174809456E0
2.075357096E1,1.694766426E1,3.276033998E-1,7.174809456E0
2.077023762E1,2.168252373E1,-8.716809750E-2,8.332769394E0
2.078690429E1,2.843897820E1,-2.026758671E0,9.945993423E0
2.080357096E1,2.620842552E1,-8.979980350E-1,1.272479916E1
2.082023762E1,2.780280113E1,2.912211180E0,1.290989971E1
2.083690429E1,2.780280113E1,2.912211180E0,1.290989971E1
2.085357095E1,2.938402748E1,-2.513471127E0,1.359525394E1
2.087023762E1,3.029914856E1,-1.359284043E0,1.379265118E1
2.088690428E1,3.130081558E1,-1.945432574E-1,1.234164047E1
2.090357095E1,2.975356865E1,-2.095979929E0,1.066787338E1
2.092023762E1,2.490603638E1,-3.380584002E0,9.514336586E0
2.093690428E1,2.490603638E1,-3.380584002E0,9.514336586E0
2.095357095E1,1.573504829E1,-2.424914598E0,5.589819431E0
2.097023762E1,1.144009018E1,-1.831305742E0,3.574657917E0
2.098690428E1,7.819587231E0,-8.485146761E-1,1.163965106E0
2.100357095E1,5.107502460E0,7.136444449E-1,-3.077027798E-1
2.102023761E1,3.339758158E0,1.621573567E0,-4.628087878E-1
2.103690428E1,1.961598158E0,2.073723316E0,5.856217071E-2
2.105357094E1,1.137533069E0,2.341529369E0,3.776996732E-1
2.107023761E1,4.128178358E-1,2.457753420E0,3.092350997E-2
2.108690428E1,-4.604528844E-1,2.340360880E0,-3.986728787E-1
2.110357094E1,-1.103746057E0,2.214023590E0,-4.333217740E-1
2.112023761E1,-1.070955157E0,2.254705906E0,-2.524254620E-1
2.113690428E1,-1.070955157E0,2.254705906E0,-2.524254620E-1
2.115357094E1,-3.326312304E-1,2.383073568E0,-1.004319668E0
2.117023761E1,-3.326312304E-1,2.383073568E0,-1.004319668E0
2.118690427E1,-4.246739149E-1,1.592958093E0,-1.464341640E0
2.120357094E1,-4.246739149E-1,1.592958093E0,-1.464341640E0
2.122023760E1,-4.246739149E-1,1.592958093E0,-1.464341640E0
2.123690427E1,-5.433018208E-1,6.573711634E-1,-2.218974829E0
2.125357094E1,-5.433018208E-1,6.573711634E-1,-2.218974829E0
2.127023760E1,-1.297417879E0,-1.022065520E0,-2.530690432E0
2.128690427E1,-1.785346627E0,-2.526725531E0,-2.666987658E0
2.130357094E1,-2.179288626E0,-4.161419392E0,-1.690612912E0
2.132023760E1,-1.399793983E0,-6.297296524E0,1.096544385E0
2.133690427E1,1.469005466E0,-1.041101360E1,4.287124634E0
2.135357093E1,6.176982880E0,-1.383125496E1,8.751286507E0
2.137023760E1,7.108289242E0,-1.783191872E1,1.756526184E1
2.138690427E1,7.108289242E0,-1.783191872E1,1.756526184E1
2.140357093E1,3.524092436E0,-2.607731819E1,2.489372253E1
2.142023760E1,5.425739765E0,-2.283127022E1,2.662004662E1
2.143690426E1,8.169945717E0,-2.069808388E1,2.484250641E1
2.145357093E1,9.753479958E0,-1.841310501E1,1.990707779E1
2.147023760E1,1.064997482E1,-1.485165405E1,1.480771542E1
2.148690426E1,9.850205421E0,-1.206298447E1,1.051105309E1
2.150357093E1,7.504826069E0,-9.581040382E0,5.965574741E0
2.152023759E1,4.700133801E0,-6.486888409E0,2.093173742E0
2.153690426E1,4.700133801E0,-6.486888409E0,2.093173742E0
2.155357093E1,4.700133801E0,-6.486888409E0,2.093173742E0
2.157023759E1,4.700133801E0,-6.486888409E0,2.093173742E0
2.158690426E1,5.175210834E-1,3.648476124E0,-7.267838717E-1
2.160357092E1,3.284748793E-1,1.921576619E0,-4.146278501E-1
2.162023759E1,3.284748793E-1,1.921576619E0,-4.146278501E-1
2.163690426E1,-1.929448843E0,3.033836782E-1,-3.698179722E-1
2.165357092E1,-2.484587669E0,1.619466782E0,-1.001350880E0
2.167023759E1,-2.482011557E0,2.866184950E0,-1.211178660E0
2.168690425E1,-2.186854362E0,3.170976639E0,-1.112451434E0
2.170357092E1,-1.550906420E0,2.810524702E0,-7.706839442E-1
2.172023759E1,-3.381953537E-1,2.534607172E0,-1.148948550E0
2.173690425E1,1.154148936E0,2.151477575E0,-4.606444240E-1
2.175357092E1,1.786285162E0,1.632414579E0,-1.915552765E-1
2.177023758E1,2.055929661E0,1.457168579E0,-4.624735713E-1
2.178690425E1,3.030475140E0,1.231069803E0,8.686163463E-3
2.180357092E1,4.524792194E0,9.459778666E-1,4.582502246E-1
2.182023758E1,6.034681320E0,8.666818738E-1,8.972606063E-1
2.183690425E1,7.930151463E0,2.065171480E0,1.840853810E0
2.185357091E1,1.250644779E1,4.297812462E0,5.738336563E0
2.187023758E1,1.597972584E1,2.513375521E0,7.365225315E0
2.188690424E1,1.861334801E1,-3.251517296E0,7.081358910E0
2.190357091E1,1.974011803E1,-4.833998680E0,6.543601990E0
2.192023758E1,2.165177155E1,-7.999123335E-1,1.054672623E1
2.193690424E1,2.826513100E1,5.933119059E-1,1.550867081E1
2.195357091E1,2.826513100E1,5.933119059E-1,1.550867081E1
2.197023758E1,3.619515991E1,-2.688851357E0,1.090384579E1
2.198690424E1,3.619515991E1,-2.688851357E0,1.090384579E1
2.200357091E1,3.563026047E1,-2.214081049E0,6.572543621E0
2.202023757E1,2.741464424E1,-1.241393566E0,5.872536182E0
2.203690424E1,2.741464424E1,-1.241393566E0,5.872536182E0
2.205357090E1,1.545965767E1,-4.804013669E-1,3.683211088E0
2.207023757E1,1.133211136E1,-3.483659327E-1,2.785050392E0
2.208690424E1,8.468856812E0,6.897216290E-2,1.265048385E0
2.210357090E1,6.046470165E0,1.200021744E0,-2.160527557E-2
2.212023757E1,3.936584711E0,2.596051931E0,-7.502757311E-1
2.213690424E1,2.379922628E0,3.639675140E0,-7.791306973E-1
2.215357090E1,1.156093001E0,3.486599445E0,-5.579255819E-1
2.217023757E1,2.838565707E-1,2.682559252E0,-9.490136504E-1
2.218690423E1,-4.590067863E-1,1.757334471E0,-1.270717740E0
2.220357090E1,-7.612124681E-1,1.222163320E0,-1.162691355E0
2.222023756E1,-8.859887123E-1,1.204752684E0,-1.129546046E0
2.223690423E1,-6.295601130E-1,1.556288600E0,-6.410619020E-1
2.225357090E1,1.462857276E-1,2.077420235E0,-9.798318744E-1
2.227023756E1,6.302592158E-1,2.421849966E0,-1.723968863E0
2.228690423E1,7.380749583E-1,2.583774567E0,-2.001322746E0
2.230357090E1,5.577723980E-1,2.459831476E0,-1.969365001E0
2.232023756E1,2.573862672E-1,2.136173725E0,-2.340590715E0
2.233690423E1,-2.772198319E-1,1.816452146E0,-1.379203916E0
2.235357089E1,-2.772198319E-1,1.816452146E0,-1.379203916E0
2.237023756E1,-1.598771214E0,4.397861362E-1,4.100597203E-1
2.238690423E1,-1.477969527E0,-4.778730869E-1,2.726047516E0
2.240357089E1,-1.477969527E0,-4.778730869E-1,2.726047516E0
2.242023756E1,1.363947988E0,-6.943299770E0,8.994355202E0
2.243690422E1,2.310567379E0,-1.089724731E1,1.253843498E1
2.245357089E1,7.506684065E-1,-1.489367771E1,1.638732338E1
2.247023756E1,7.352689505E-1,-2.035540581E1,2.025698662E1
2.248690422E1,3.355866194E0,-2.484329987E1,2.209422112E1
2.250357089E1,3.870466471E0,-2.432412148E1,2.399248695E1
2.252023755E1,5.012778282E0,-1.927054596E1,2.400311661E1
2.253690422E1,8.315829277E0,-1.494927025E1,2.054717445E1
2.255357089E1,8.741786003E0,-1.241861916E1,1.589832306E1
2.257023755E1,7.284914017E0,-1.009985352E1,1.116548443E1
2.258690422E1,5.710008144E0,-7.293734550E0,6.746745586E0
2.260357088E1,4.116351128E0,-4.171005726E0,3.070056200E0
2.262023755E1,2.746934652E0,-1.559113741E0,1.017104745E0
2.263690422E1,2.215804815E0,8.530923724E-1,-7.708850503E-1
2.265357088E1,1.859202981E0,2.639396667E0,-1.043929458E0
2.267023755E1,1.816250920E0,3.503224611E0,-8.339962363E-1
2.268690421E1,1.369330168E0,3.071808577E0,-6.221955419E-1
2.270357088E1,1.436999887E-1,1.939044833E0,-5.933789611E-1
2.272023754E1,-1.279719949E0,1.018129468E0,-4.197897613E-1
2.273690421E1,-1.279719949E0,1.018129468E0,-4.197897613E-1
2.275357088E1,-1.279719949E0,1.018129468E0,-4.197897613E-1
2.277023754E1,-1.279719949E0,1.018129468E0,-4.197897613E-1
2.278690421E1,5.763992667E-1,2.818233967E0,-7.899141908E-1
2.280357088E1,5.763992667E-1,2.818233967E0,-7.899141908E-1
2.282023754E1,2.431168318E0,1.551500082E0,5.279885530E-1
2.283690421E1,2.431168318E0,1.551500082E0,5.279885530E-1
2.285357087E1,2.431168318E0,1.551500082E0,5.279885530E-1
2.287023754E1,2.968838930E0,2.132793188E0,5.380346179E-1
2.288690420E1,3.331598520E0,1.498942614E0,8.487541080E-1
2.290357087E1,4.185667992E0,8.796967268E-1,1.601759315E0
2.292023754E1,5.373182774E0,1.555177569E-1,3.870552778E0
2.293690420E1,8.967539787E0,7.972404361E-1,6.409881115E0
2.295357087E1,1.470688152E1,2.248749256E0,8.925373077E0
2.297023754E1,1.849376106E1,2.917420864E0,1.044246387E1
2.298690420E1,2.125621986E1,-7.484274358E-2,1.134882259E1
2.300357087E1,2.562928772E1,7.157610059E-1,1.067730618E1
2.302023753E1,2.825792885E1,5.562946796E0,1.071223354E1
2.303690420E1,3.256217957E1,4.984200954E0,1.052949810E1
2.305357086E1,3.405700302E1,2.518566132E0,1.130292130E1
2.307023753E1,3.461248398E1,2.206438780E0,1.031021786E1
2.308690420E1,3.439502335E1,2.361908674E0,9.009793282E0
2.310357086E1,3.014827538E1,1.218591213E0,9.100791931E0
2.312023753E1,2.455659866E1,5.105012655E-1,8.432416916E0
2.313690420E1,2.455659866E1,5.105012655E-1,8.432416916E0
2.315357086E1,1.053376007E1,9.272934794E-1,3.079929590E0
2.317023753E1,7.620351791E0,1.022553921E0,1.902356029E0
2.318690419E1,7.620351791E0,1.022553921E0,1.902356029E0
2.320357086E1,3.143050432E0,1.671162367E0,-4.826423228E-1
2.322023752E1,1.611163735E0,2.090348959E0,-1.098680019E0
2.323690419E1,9.053721428E-1,1.988719702E0,-1.486607671E0
2.325357086E1,-4.531745240E-2,1.553214312E0,-1.637040138E0
2.327023752E1,-4.531745240E-2,1.553214312E0,-1.637040138E0
2.327023752E1,-7.970680594E-1,1.378035426E0,-1.426656842E0
2.330357086E1,-7.918774486E-1,2.495112658E0,-1.238060951E0
2.332023752E1,-6.015767455E-1,2.601003170E0,-1.222029328E0
2.333690419E1,1.480287015E-1,2.313947916E0,-1.353164554E0
2.335357085E1,8.163174391E-1,1.722225904E0,-1.124001145E0
2.337023752E1,1.247905731E0,1.504305720E0,-1.378677130E0
2.338690419E1,1.544422865E0,2.025398970E0,-1.452562094E0
2.340357085E1,1.384653091E0,2.479741812E0,-9.330587387E-1
2.342023752E1,1.242197990E0,2.299362659E0,-2.328121848E-2
2.343690418E1,1.043402672E0,1.318726301E0,6.572945714E-1
2.345357085E1,1.607543588E0,2.828126848E-1,1.127860546E0
2.347023752E1,2.918110609E0,-1.818060994E0,5.205885410E0
2.348690418E1,4.919174671E0,-5.869270325E0,7.923256397E0
2.350357085E1,8.032805443E0,-9.381612778E0,9.846403122E0
2.352023751E1,8.473003387E0,-1.413037682E1,1.433667088E1
2.353690418E1,6.501837730E0,-2.704390717E1,2.075460815E1
2.355357085E1,6.501837730E0,-2.704390717E1,2.075460815E1
2.357023751E1,7.495029449E0,-2.037200356E1,2.243446541E1
2.358690418E1,6.482339382E0,-1.424387169E1,1.962904549E1
2.360357084E1,3.782637358E0,-1.168928719E1,1.449995613E1
2.362023751E1,1.551490545E0,-9.342251778E0,1.020700836E1
2.363690418E1,1.551490545E0,-9.342251778E0,1.020700836E1
2.365357084E1,-1.758751869E0,-2.924354553E0,4.123332500E0
2.367023751E1,-1.256850600E0,9.403275251E-1,1.654316783E0
2.368690417E1,-2.966693640E0,3.836688995E0,2.891142368E-1
2.370357084E1,-4.616394520E0,4.632894993E0,-8.471260667E-1
2.372023750E1,-4.968907356E0,2.385697603E0,-1.578640819E0
2.373690417E1,-4.523738861E0,2.143864036E-1,-1.032753348E0
2.375357084E1,-4.165249825E0,4.093605876E-1,-6.072174311E-1
2.377023750E1,-3.801302671E0,1.856578946E0,-1.090645075E0
2.378690417E1,-2.764354944E0,2.757584095E0,-1.047932506E0
2.380357084E1,-8.011764884E-1,2.776182175E0,-1.047932506E0
2.382023750E1,8.894650936E-1,2.487872601E0,-1.208650470E0
2.383690417E1,1.970389605E0,2.316524267E0,-1.146315098E0
2.385357083E1,2.734733820E0,2.174145699E0,-9.208578467E-1
2.387023750E1,2.938260078E0,1.930033088E0,-9.129378796E-1
2.388690416E1,2.767246962E0,1.575605035E0,-7.748115659E-1
2.390357083E1,2.223064184E0,1.207453370E0,-7.390709519E-1
2.392023750E1,1.103956819E0,7.407947183E-1,-7.591917515E-1
2.393690416E1,1.103956819E0,7.407947183E-1,-7.591917515E-1
2.395357083E1,-1.311256438E-1,-7.551790476E-1,2.018982410E0
2.397023750E1,-1.311256438E-1,-7.551790476E-1,2.018982410E0
2.398690416E1,1.516311169E1,-3.172681093E0,5.017528534E0
2.400357083E1,2.841534424E1,-6.484360099E-1,7.829795837E0
2.402023749E1,2.922366333E1,-2.092513084E0,9.488078117E0
2.403690416E1,3.694846725E1,-5.132191181E0,7.962875366E0
2.405357082E1,3.694846725E1,-5.132191181E0,7.962875366E0
2.407023749E1,3.824583054E1,6.386964321E-1,1.132344437E1
2.408690416E1,3.877957535E1,-8.200332522E-1,9.577420235E0
2.410357082E1,3.877957535E1,-8.200332522E-1,9.577420235E0
2.412023749E1,3.336957932E1,-1.980464458E0,6.196845055E0
2.413690416E1,2.795798492E1,-1.446203113E0,6.220758438E0
2.415357082E1,2.254291153E1,-1.622272730E0,5.240007401E0
2.417023749E1,1.724346352E1,-1.412914157E0,4.357590675E0
2.418690415E1,1.296080971E1,-3.630663157E-1,3.331397772E0
2.420357082E1,9.120969772E0,7.913794518E-1,2.351642370E0
2.422023749E1,6.167138100E0,1.871528268E0,6.877009273E-1
2.423690415E1,3.797816992E0,2.303423166E0,-5.964627266E-1
2.425357082E1,1.810246348E0,2.664794445E0,-1.083577394E0
2.427023748E1,7.560505867E-1,2.741016150E0,-1.177171469E0
2.428690415E1,1.494269073E-1,2.436876059E0,-1.428083897E0
2.430357082E1,-4.166006744E-1,2.222010851E0,-1.422653794E0
2.432023748E1,-7.430548668E-1,2.458366156E0,-1.322078109E0
2.433690415E1,-7.430548668E-1,2.458366156E0,-1.322078109E0
2.435357081E1,-7.917146087E-1,2.394987106E0,-8.618360162E-1
2.437023748E1,-4.397573769E-1,1.693102837E0,-9.632639885E-1
2.438690415E1,-4.397573769E-1,1.693102837E0,-9.632639885E-1
2.440357081E1,7.204344273E-1,8.175145388E-1,-2.138692379E0
2.442023748E1,7.204344273E-1,8.175145388E-1,-2.138692379E0
2.443690414E1,-6.200982258E-2,4.243004024E-1,-1.356458902E0
2.445357081E1,2.455397546E-1,9.481039047E-1,2.113697082E-1
2.447023748E1,2.455397546E-1,9.481039047E-1,2.113697082E-1
2.448690414E1,3.980437040E0,2.650687695E0,9.851852655E-1
2.450357081E1,1.104665518E0,-4.738125205E-1,4.727332115E0
2.452023747E1,-1.948966384E0,-7.551168442E0,1.020008469E1
2.453690414E1,1.000134587E0,-1.299665642E1,1.100628948E1
2.455357081E1,7.891480327E-1,-1.797622299E1,1.662399673E1
2.457023747E1,-1.393329650E-1,-2.308406830E1,1.957967567E1
2.458690414E1,4.236616611E0,-2.525138664E1,2.158403587E1
2.460357080E1,1.871921062E0,-2.396336365E1,2.419157028E1
2.462023747E1,3.063620567E0,-1.944999695E1,2.416117096E1
2.463690414E1,5.575818062E0,-1.521471119E1,1.998813629E1
2.465357080E1,3.960613012E0,-1.333737946E1,1.434609509E1
2.467023747E1,2.381694317E0,-1.175827885E1,9.416136742E0
2.468690413E1,1.494336128E0,-9.037899971E0,5.924279690E0
2.470357080E1,1.142254472E0,-5.500218868E0,2.970620155E0
2.472023746E1,9.231753945E-1,-1.439365387E0,-1.241154224E-2
2.473690413E1,-3.963840380E-2,5.824316978E0,-1.399056554E0
2.475357080E1,-3.963840380E-2,5.824316978E0,-1.399056554E0
2.477023746E1,2.003563643E-1,4.243483067E0,-9.463800490E-2
2.478690413E1,2.003563643E-1,4.243483067E0,-9.463800490E-2
2.480357080E1,-1.789799809E0,5.027344823E-1,5.958784819E-1
2.482023746E1,-2.846466303E0,2.255194426E0,-1.102290526E-1
2.483690413E1,-2.846466303E0,2.255194426E0,-1.102290526E-1
2.485357079E1,-1.704777002E0,4.335258007E0,-7.692186832E-1
2.487023746E1,-1.952232122E-1,3.655802250E0,-7.270424366E-1
2.488690412E1,7.198023796E-1,2.306669712E0,-6.826347709E-1
2.490357079E1,1.122315526E0,1.255586386E0,-7.170155048E-1
2.492023746E1,1.679503798E0,1.078923106E0,-3.785328567E-1
2.493690412E1,2.832196951E0,1.919536829E0,-3.951007426E-1
2.495357079E1,4.234155178E0,2.916578054E0,-4.232565761E-1
2.497023746E1,6.141079426E0,3.222787142E0,5.135371089E-1
2.498690412E1,7.418759823E0,2.188941956E0,9.242289066E-1
2.500357079E1,8.691163063E0,6.663063169E-1,8.816407919E-1
2.502023745E1,1.042096424E1,-1.348701566E-1,1.163400054E0
2.503690412E1,1.343557072E1,-4.678078592E-1,3.259169340E0
2.505357078E1,1.595943260E1,1.577491611E-1,3.355665207E0
2.507023745E1,1.834494781E1,-6.380451918E-1,5.034642220E0
2.508690412E1,2.151405716E1,-3.268181086E-1,5.141040325E0
2.510357078E1,2.732760048E1,7.874912620E-1,1.028446579E1
2.512023745E1,3.029269600E1,4.146039009E0,1.005824184E1
2.513690412E1,3.825682449E1,-3.530393839E-1,7.923227310E0
2.515357078E1,3.825682449E1,-3.530393839E-1,7.923227310E0
2.517023745E1,3.242773819E1,1.385016918E0,5.776174545E0
2.518690411E1,2.566154289E1,-7.414938211E-1,4.570693970E0
2.520357078E1,2.566154289E1,-7.414938211E-1,4.570693970E0
2.522023745E1,1.839729500E1,-5.871348977E-1,4.634034634E0
2.523690411E1,1.577958965E1,-1.072813153E0,3.430814505E0
2.525357078E1,1.301750469E1,-4.136701524E-1,1.487852693E0
2.527023744E1,8.803230286E0,6.945770979E-1,1.368525717E-2
2.528690411E1,4.592069149E0,1.718337774E0,-1.532442212E0
2.530357078E1,2.105480194E0,2.325708389E0,-2.113524675E0
2.532023744E1,8.044517636E-1,2.280831575E0,-1.796589851E0
2.533690411E1,-2.100576758E-1,1.611307383E0,-1.497372031E0
2.535357077E1,-8.503342271E-1,1.062728643E0,-1.306180716E0
2.537023744E1,-1.387200475E0,1.021663308E0,-8.962454796E-1
2.538690411E1,-1.141526580E0,1.838181853E0,-7.200130820E-1
2.540357077E1,-5.143798590E-1,2.809854269E0,-2.330037057E-1
2.542023744E1,3.995826840E-1,2.989840746E0,2.566584153E-3
2.543690410E1,6.308242679E-1,2.573402882E0,-1.685996801E-1
2.545357077E1,3.486915231E-1,2.128004789E0,-4.057884514E-1
2.547023744E1,2.274587452E-1,1.696962237E0,-7.263433337E-1
2.548690410E1,-1.975886822E-1,1.328207254E0,-6.822229624E-1
2.550357077E1,-3.730932176E-1,1.243318439E0,-5.215815902E-1
2.552023743E1,-2.737147212E-1,1.315872431E0,-4.448809922E-1
2.553690410E1,-2.737147212E-1,1.315872431E0,-4.448809922E-1
2.555357076E1,-2.737147212E-1,1.315872431E0,-4.448809922E-1
2.557023743E1,-2.737147212E-1,1.315872431E0,-4.448809922E-1
2.558690410E1,3.096095562E0,-9.705374718E0,5.192180634E0
2.560357076E1,7.377713203E0,-1.424770355E1,1.039013672E1
2.562023743E1,7.377713203E0,-1.424770355E1,1.039013672E1
2.563690410E1,8.178708076E0,-2.182666397E1,1.663844681E1
2.565357076E1,8.215377808E0,-2.415172005E1,2.016058540E1
2.567023743E1,6.300130844E0,-2.512350845E1,2.201858139E1
2.568690409E1,4.886613846E0,-2.207498932E1,2.065398216E1
2.570357076E1,6.185898781E0,-1.801773643E1,1.735663986E1
2.572023742E1,5.812949181E0,-1.537483597E1,1.285767651E1
2.573690409E1,4.448101044E0,-1.244959927E1,8.467831612E0
2.575357076E1,2.914298773E0,-8.453907013E0,4.831642628E0
2.577023742E1,1.684684873E0,-4.529245377E0,2.324587822E0
2.578690409E1,4.815314412E-1,-8.558983803E-1,3.175764680E-1
2.580357076E1,-6.546130180E-1,2.602296114E0,-7.379983068E-1
2.582023742E1,-8.862376809E-1,5.071264267E0,-4.637185633E-1
2.583690409E1,-1.647115052E-1,4.959128857E0,-2.831670344E-1
2.585357075E1,2.583343387E-1,2.497908831E0,-1.742787361E-1
2.587023742E1,-5.321735740E-1,-3.022440150E-2,6.745423675E-1
2.588690408E1,-2.012202024E0,-4.114483595E-1,3.483276069E-1
2.590357075E1,-3.158766031E0,8.553429246E-1,-5.678855181E-1
2.592023742E1,-3.407820463E0,2.339786291E0,-1.137427688E0
2.593690408E1,-3.407820463E0,2.339786291E0,-1.137427688E0
2.595357075E1,-3.407820463E0,2.339786291E0,-1.137427688E0
2.597023742E1,1.487278193E-1,1.982964039E0,-1.812640548E0
2.598690408E1,1.487278193E-1,1.982964039E0,-1.812640548E0
2.600357075E1,1.487278193E-1,1.982964039E0,-1.812640548E0
2.602023741E1,2.323151350E0,2.645678997E0,-4.199046493E-1
2.603690408E1,2.323151350E0,2.645678997E0,-4.199046493E-1
2.605357075E1,4.125535011E0,2.975647926E0,2.767697209E-3
2.607023741E1,6.499903202E0,2.939246655E0,1.183836937E0
2.608690408E1,1.170604706E1,2.821624279E0,4.316649914E0
2.610357074E1,1.873450470E1,3.962853909E0,5.153442383E0
2.612023741E1,1.873450470E1,3.962853909E0,5.153442383E0
2.612023741E1,2.326446724E1,2.509765148E0,6.675963402E0
2.615357074E1,3.179779434E1,2.163735867E0,8.211001396E0
2.617023741E1,3.280224991E1,7.392930984E0,1.078539085E1
2.618690407E1,3.398822403E1,7.838041782E0,1.294756508E1
2.620357074E1,3.544024658E1,4.822333813E0,1.481980133E1
2.622023741E1,3.481713104E1,4.516920090E0,1.266542244E1
2.623690407E1,3.247244263E1,4.346941471E0,9.228143692E0
2.625357074E1,2.708780670E1,2.491923332E0,6.412074089E0
2.627023740E1,2.141862488E1,1.290168166E0,4.943710327E0
2.628690407E1,1.666312790E1,6.369822025E-1,3.968025446E0
2.630357074E1,1.287091255E1,-1.054980978E-1,3.172230959E0
2.632023740E1,9.652310371E0,-3.786190450E-1,2.417023182E0
2.633690407E1,9.652310371E0,-3.786190450E-1,2.417023182E0
2.635357073E1,9.652310371E0,-3.786190450E-1,2.417023182E0
2.637023740E1,2.857336283E0,3.592394352E0,-2.303413600E-1
2.638690407E1,2.857336283E0,3.592394352E0,-2.303413600E-1
2.640357073E1,1.330170512E0,3.629150152E0,-1.172249079E0
2.642023740E1,2.783881724E-1,3.643706799E0,-1.495657802E0
2.643690406E1,-7.261518240E-1,3.530020475E0,-1.353336930E0
2.645357073E1,-9.553630948E-1,3.466775417E0,-1.351670504E0
2.647023740E1,-3.389998078E-1,3.286712170E0,-1.214061379E0
2.648690406E1,8.523358032E-3,2.950326920E0,-9.949536324E-1
2.650357073E1,1.727177054E-1,2.528727055E0,-7.829039097E-1
2.652023739E1,3.988548517E-1,2.429463625E0,-9.796977639E-1
2.653690406E1,6.056181192E-1,2.663856030E0,-1.243232250E0
2.655357072E1,5.472953320E-1,2.978300810E0,-1.344842315E0
2.657023739E1,-1.876479536E-1,2.786984921E0,-1.396652818E0
2.658690406E1,-1.350195646E0,1.749864459E0,-1.759087086E0
2.660357072E1,-2.666767120E0,-3.966713250E-1,-2.053794146E0
2.662023739E1,-4.622274399E0,-3.059119463E0,-1.159923673E0
2.663690406E1,-8.300955772E0,-7.840847492E0,2.232267618E0
2.665357072E1,-3.746284008E0,-1.210575390E1,4.649099350E0
2.667023739E1,8.713256836E0,-1.709375763E1,1.197201347E1
2.668690405E1,1.319408226E1,-2.293064880E1,1.719042587E1
2.670357072E1,1.288331413E1,-2.904944420E1,2.186987305E1
2.672023738E1,8.996902466E0,-3.089279747E1,2.278879738E1
2.673690405E1,-1.746455193E0,-2.077862549E1,2.020753098E1
2.675357072E1,-1.746455193E0,-2.077862549E1,2.020753098E1
2.677023738E1,1.955583930E0,-1.187561417E1,1.246816063E1
2.678690405E1,2.810764074E0,-8.522543907E0,8.084520340E0
2.680357072E1,2.555369854E0,-4.874987125E0,4.326878071E0
2.682023738E1,1.760820389E0,-1.327163458E0,1.476264715E0
2.683690405E1,1.760820389E0,-1.327163458E0,1.476264715E0
2.685357071E1,2.793171406E-1,2.915563107E0,-2.152157545E0
2.687023738E1,-1.476264745E-1,2.644587517E0,-2.230304241E0
2.688690404E1,-6.625235081E-1,1.404448271E0,-2.057030916E0
2.690357071E1,-1.381243706E0,3.690614104E-1,-1.639022589E0
2.692023738E1,-2.169300079E0,3.468144834E-1,-1.251746058E0
2.693690404E1,-2.953812838E0,1.141651154E0,-1.146372557E0
2.695357071E1,-3.310644627E0,2.265795946E0,-9.089059830E-1
2.697023738E1,-2.738239050E0,3.157923222E0,-7.406798005E-1
2.698690404E1,-1.508567333E0,3.697710514E0,-7.588661313E-1
2.700357071E1,-4.000806808E-1,3.660782337E0,-9.298504591E-1
2.702023737E1,5.557708144E-1,3.309600830E0,-9.833273888E-1
2.703690404E1,1.168073654E0,2.984142542E0,-5.992208123E-1
2.705357071E1,1.942492485E0,2.746034384E0,-9.334321618E-1
2.707023737E1,2.648226500E0,1.654144406E0,-2.762429714E-1
2.708690404E1,2.705457449E0,4.987888038E-1,9.853863716E-1
2.710357070E1,3.112740040E0,1.054636240E0,2.369330883E0
2.712023737E1,3.248615742E0,2.092972994E0,2.968302488E0
2.713690404E1,3.248615742E0,2.092972994E0,2.968302488E0
2.715357070E1,1.793284035E1,4.246298790E0,7.505123138E0
2.717023737E1,1.793284035E1,4.246298790E0,7.505123138E0
2.718690403E1,2.269107628E1,-2.288856983E0,7.896077156E0
2.720357070E1,2.269107628E1,-2.288856983E0,7.896077156E0
2.722023737E1,2.269107628E1,-2.288856983E0,7.896077156E0
2.723690403E1,3.722389221E1,4.688651562E0,1.376119137E1
2.725357070E1,3.722389221E1,4.688651562E0,1.376119137E1
2.727023736E1,3.510906982E1,2.620961428E0,9.994221687E0
2.728690403E1,3.405750656E1,2.825416565E0,8.244634628E0
2.730357070E1,2.716510201E1,1.255461931E0,7.318997860E0
2.732023736E1,2.181796646E1,5.915976763E-1,6.141328812E0
2.733690403E1,1.630682182E1,6.342527270E-1,4.595583916E0
2.735357069E1,1.247786140E1,6.436954737E-1,2.497976065E0
2.737023736E1,1.023285675E1,1.786553413E-1,1.860342622E0
2.738690403E1,1.023285675E1,1.786553413E-1,1.860342622E0
2.740357069E1,5.929853439E0,-2.821231484E-1,-7.733654976E-1
2.742023736E1,3.692031384E0,3.535086811E-1,-1.679542065E0
2.743690402E1,1.886621356E0,1.648235440E0,-1.055431128E0
2.745357069E1,2.886928320E-1,2.804922104E0,-7.021714449E-1
2.747023736E1,-1.232352972E0,3.442076683E0,-7.647750974E-1
2.748690402E1,-1.701530337E0,3.337967396E0,-8.114141226E-1
2.750357069E1,-9.935650229E-1,2.744751215E0,-6.733739972E-1
2.752023735E1,-1.469943970E-1,2.199064732E0,-5.045157671E-1
2.753690402E1,-1.469943970E-1,2.199064732E0,-5.045157671E-1
2.755357068E1,1.611604214E0,1.893554926E0,-9.251386523E-1
2.757023735E1,1.611604214E0,1.893554926E0,-9.251386523E-1
2.758690402E1,1.611604214E0,1.893554926E0,-9.251386523E-1
2.760357068E1,8.048156500E-1,1.917640567E0,-1.295176864E0
2.762023735E1,8.048156500E-1,1.917640567E0,-1.295176864E0
2.763690402E1,-2.404544652E-1,1.323035955E-1,-1.126931667E0
2.765357068E1,-3.782838583E-3,-1.355118211E-2,-2.629992247E0
2.767023735E1,-1.857230067E-1,-7.597951293E-1,-3.211562872E0
2.768690401E1,-3.075658560E0,-6.811733723E0,1.925656319E0
2.770357068E1,2.409419298E0,-1.282592106E1,3.586427927E0
2.772023734E1,8.858325958E0,-1.690249062E1,8.985295296E0
2.773690401E1,8.490691185E0,-2.164543152E1,1.374342632E1
2.775357068E1,5.619679451E0,-2.846081352E1,1.706056404E1
2.777023734E1,6.479265213E0,-3.063178062E1,1.875093842E1
2.778690401E1,7.520062923E0,-2.560402298E1,2.084321022E1
2.780357068E1,5.632522583E0,-2.002775574E1,1.980874443E1
2.782023734E1,6.101058006E0,-1.715884209E1,1.622804260E1
2.783690401E1,5.897100449E0,-1.459558010E1,1.186309624E1
2.785357067E1,4.558435440E0,-1.147992897E1,7.272445202E0
2.787023734E1,2.588227749E0,-8.195984840E0,3.870208025E0
2.788690400E1,9.247939587E-1,-4.636218071E0,1.087561250E0
2.790357067E1,-2.871509790E-1,-9.680715203E-1,-1.262481689E0
2.792023734E1,-1.096046329E0,2.577836990E0,-2.318592787E0
2.793690400E1,-1.096046329E0,2.577836990E0,-2.318592787E0
2.795357067E1,-1.096046329E0,2.577836990E0,-2.318592787E0
2.797023734E1,-3.146057606E0,-2.252177596E-1,-1.223111391E0
2.798690400E1,-3.146057606E0,-2.252177596E-1,-1.223111391E0
2.800357067E1,-4.514487743E0,2.178886175E0,-9.794391990E-1
2.802023733E1,-3.401519060E0,3.729850054E0,-7.781443000E-1
2.803690400E1,-1.845431566E0,4.193434715E0,-5.010010600E-1
2.805357067E1,-6.498820782E-1,3.694071293E0,-2.724697292E-1
2.807023733E1,4.202973247E-1,3.284978867E0,-2.933471799E-1
2.808690400E1,1.293165803E0,3.208910227E0,-3.496204913E-1
2.810357066E1,1.588198543E0,3.151506901E0,-6.460514069E-1
2.812023733E1,2.235245943E0,2.159321070E0,9.927317500E-2
2.813690400E1,3.676287174E0,6.532052755E-1,1.120495915E0
2.815357066E1,5.311153412E0,6.680014133E-1,9.642025232E-1
2.817023733E1,6.954590797E0,2.250223875E0,1.546970367E0
2.818690399E1,8.495719910E0,3.194056749E0,2.306028128E0
2.820357066E1,1.036397266E1,1.785566926E0,3.980551720E0
2.822023733E1,1.391765690E1,8.855577111E-1,4.653983593E0
2.823690399E1,1.891673088E1,1.156131268E0,6.780800819E0
2.825357066E1,2.320779991E1,4.460589290E-1,8.610277176E0
2.827023732E1,2.674290848E1,1.308335423E0,1.031855965E1
2.828690399E1,3.319362640E1,5.748823166E0,1.181037712E1
2.830357066E1,3.885855484E1,5.456691742E0,1.191055965E1
2.832023732E1,4.004058075E1,3.208230257E0,1.155225277E1
2.833690399E1,3.268537140E1,1.249734998E0,5.866493225E0
2.835357065E1,3.268537140E1,1.249734998E0,5.866493225E0
2.837023732E1,2.053954124E1,1.541281700E0,4.623519421E0
2.838690398E1,1.629937172E1,1.719285727E0,4.507477760E0
2.840357065E1,1.629937172E1,1.719285727E0,4.507477760E0
2.842023732E1,1.050891685E1,2.612457275E-1,7.181647420E-2
2.843690398E1,7.485854626E0,-2.949656248E-1,-1.371226311E0
2.845357065E1,4.706090927E0,-4.376409352E-1,-9.796499014E-1
2.847023732E1,2.297361135E0,4.193683714E-2,-5.212368965E-1
2.848690398E1,1.490208626E0,1.558165669E0,-8.020097017E-1
2.850357065E1,1.905899405E0,3.216466427E0,-1.308938861E0
2.852023731E1,9.741527438E-1,3.581256628E0,-1.055977106E0
2.853690398E1,1.674696207E-1,2.992464781E0,-7.520954013E-1
2.855357064E1,-1.093000919E-1,2.447142363E0,-8.322053552E-1
2.857023731E1,-6.835924834E-2,2.135034084E0,-1.035923243E0
2.858690398E1,-3.484712839E-1,1.934294701E0,-8.654081225E-1
2.860357064E1,-6.960422993E-1,1.721641779E0,-8.151873946E-1
2.862023731E1,-1.081250191E0,1.265661240E0,-6.126378775E-1
2.863690398E1,-1.162586093E0,1.055584311E0,-4.286291599E-1
2.865357064E1,-8.246109486E-1,1.242159724E0,-5.089689493E-1
2.867023731E1,-4.472081661E-1,1.404113173E0,-5.810631514E-1
2.868690397E1,-1.441501081E-1,1.340360403E0,-6.698210239E-1
2.870357064E1,1.766346246E-1,1.148086786E0,-9.305304289E-1
2.872023730E1,1.061253905E0,3.179787397E-1,-9.264889956E-1
2.873690397E1,1.061253905E0,3.179787397E-1,-9.264889956E-1
2.875357064E1,1.061253905E0,3.179787397E-1,-9.264889956E-1
2.877023730E1,1.061253905E0,3.179787397E-1,-9.264889956E-1
2.878690397E1,5.615398884E0,-2.010397911E1,1.145642757E1
2.880357064E1,3.386004686E0,-2.638296318E1,1.576347160E1
2.882023730E1,2.946553707E0,-3.269411850E1,1.705652428E1
2.883690397E1,1.678622812E-1,-3.013895798E1,2.010800934E1
2.885357063E1,2.682568789E0,-2.318835068E1,2.070275688E1
2.887023730E1,2.682568789E0,-2.318835068E1,2.070275688E1
2.888690397E1,6.687053204E0,-1.252612782E1,1.407984066E1
2.890357063E1,6.339912891E0,-9.128870964E0,9.280175209E0
2.892023730E1,4.820198059E0,-6.797196388E0,5.486121655E0
2.893690396E1,3.009674311E0,-3.986010790E0,1.955229640E0
2.895357063E1,1.503750205E0,-7.344357371E-1,-8.269476891E-1
2.897023730E1,7.423940301E-2,2.448904514E0,-2.507782698E0
2.898690396E1,-7.730302811E-1,4.033291340E0,-2.814748049E0
2.900357063E1,-1.078817725E0,2.963360786E0,-2.644683123E0
2.902023729E1,-1.941017628E0,2.394105941E-1,-2.074470520E0
2.903690396E1,-3.609910488E0,-1.305443287E0,-1.826095939E0
2.905357063E1,-5.159217358E0,-6.043539643E-1,-2.045040846E0
2.907023729E1,-5.397009373E0,1.643916368E0,-2.307723045E0
2.908690396E1,-4.000835419E0,3.724439144E0,-2.005095959E0
2.910357062E1,-1.937866807E0,4.839792252E0,-1.915399671E0
2.912023729E1,-7.535032183E-2,4.742176056E0,-1.288147569E0
2.913690396E1,-7.535032183E-2,4.742176056E0,-1.288147569E0
2.915357062E1,-7.535032183E-2,4.742176056E0,-1.288147569E0
2.917023729E1,5.146346092E0,1.908274531E0,1.170237899E0
2.918690395E1,5.146346092E0,1.908274531E0,1.170237899E0
2.920357062E1,6.340612411E0,2.106303692E0,1.406880856E0
2.922023729E1,6.379858017E0,2.511623144E0,2.975408554E0
2.923690395E1,6.379858017E0,2.511623144E0,2.975408554E0
2.925357062E1,1.009605217E1,8.534275293E-1,5.496273041E0
2.927023728E1,1.009605217E1,8.534275293E-1,5.496273041E0
2.928690395E1,1.442498875E1,2.931853294E0,5.345150948E0
2.930357062E1,1.706293869E1,2.643773079E0,6.890330791E0
2.932023728E1,1.706293869E1,2.643773079E0,6.890330791E0
2.933690395E1,2.559839249E1,3.924604177E0,1.079419136E1
2.935357061E1,2.711084747E1,4.721193314E0,1.171689701E1
2.937023728E1,3.199947357E1,2.939907312E0,1.293677235E1
2.938690394E1,3.610638428E1,1.860831022E0,1.326945114E1
2.940357061E1,3.836673737E1,2.653062820E0,1.387415886E1
2.942023728E1,3.867934418E1,2.898861170E0,1.227789783E1
2.943690394E1,3.228973770E1,-6.866762042E-1,9.948674202E0
2.945357061E1,2.513951874E1,-2.635556459E0,6.100224495E0
2.947023728E1,2.057276154E1,-1.636570930E0,3.769105434E0
2.948690394E1,1.532739162E1,-2.699701861E-2,1.061110258E0
2.950357061E1,1.067118645E1,7.185190916E-1,4.439520240E-1
2.952023727E1,6.282337189E0,9.021351933E-1,1.087637916E-1
2.953690394E1,1.312012911E0,3.170746565E0,-1.887875944E-1
2.955357060E1,1.312012911E0,3.170746565E0,-1.887875944E-1
2.957023727E1,4.842703938E-1,3.639809132E0,-4.913859665E-1
2.958690394E1,4.842703938E-1,3.639809132E0,-4.913859665E-1
2.960357060E1,4.016512632E-2,3.365041018E0,-4.489319623E-1
2.962023727E1,-3.392105177E-2,3.674285650E0,-8.437646031E-1
2.963690394E1,-5.582128763E-1,4.374685764E0,-1.225065231E0
2.965357060E1,-1.409993291E0,4.959368706E0,-1.575039864E0
2.967023727E1,-2.003755331E0,4.685835838E0,-1.646415949E0
2.968690393E1,-2.391912937E0,3.600228071E0,-1.621908784E0
2.970357060E1,-2.409285069E0,2.217509508E0,-1.568403244E0
2.972023726E1,-2.330563784E0,1.167211652E0,-1.823050499E0
2.973690393E1,-2.545333147E0,3.273161054E-1,-2.316495657E0
2.975357060E1,-3.141202211E0,-2.539386153E-1,-2.688899279E0
2.977023726E1,-3.725492716E0,-9.245162010E-1,-2.690211296E0
2.978690393E1,-2.676401377E0,-1.351546049E0,-3.493963957E0
2.980357060E1,1.240196452E-1,-2.370795965E0,-2.073637247E0
2.982023726E1,3.598963916E-1,-5.649674416E0,3.536829472E0
2.983690393E1,4.681794643E0,-9.257449150E0,5.147935867E0
2.985357059E1,1.079463196E1,-1.201617241E1,9.136924744E0
2.987023726E1,9.900129318E0,-1.627909660E1,1.375383663E1
2.988690393E1,6.515388966E0,-2.284922600E1,1.787267685E1
2.990357059E1,5.528719425E0,-2.710362625E1,1.942239571E1
2.992023726E1,1.370900750E0,-2.615891457E1,2.101411819E1
2.993690392E1,2.353710890E0,-1.770743942E1,2.170345688E1
2.995357059E1,2.353710890E0,-1.770743942E1,2.170345688E1
2.997023726E1,5.832620144E0,-1.343464184E1,1.391878700E1
2.997023726E1,5.832620144E0,-1.343464184E1,1.391878700E1
3.000357059E1,5.832620144E0,-1.343464184E1,1.391878700E1
3.002023725E1,3.260567665E0,-3.967460394E0,1.226042032E0
3.003690392E1,2.016243458E0,-1.562647521E-1,-7.301932573E-1
3.005357059E1,1.096879482E0,3.248740196E0,-2.422338486E0
3.007023725E1,6.394912601E-1,5.181473732E0,-2.861913919E0
3.008690392E1,5.378429890E-1,4.497689724E0,-2.459103823E0
3.010357058E1,-1.736370921E-1,1.548100352E0,-1.665531278E0
3.012023725E1,-1.449459195E0,-6.001306176E-1,-1.691063046E0
3.013690392E1,-2.672609091E0,-7.255963087E-1,-1.401259303E0
3.015357058E1,-3.772179604E0,8.342356682E-1,-1.523018837E0
3.017023725E1,-4.093768597E0,2.999216557E0,-1.700256705E0
3.018690391E1,-3.009042263E0,4.361660480E0,-1.189678788E0
3.020357058E1,-1.788334608E0,4.493524075E0,-9.929807782E-1
3.022023725E1,-7.557632923E-1,3.381206512E0,-2.291921377E-1
3.023690391E1,2.894685566E-1,2.171521664E0,1.546654291E-2
3.025357058E1,1.752182126E0,1.770866513E0,4.043327644E-2
3.027023724E1,3.245752096E0,1.778345942E0,7.109534144E-1
3.028690391E1,4.966608524E0,2.028578281E0,7.155023813E-1
3.030357058E1,7.963076591E0,2.635776520E0,5.278448462E-1
3.032023724E1,1.034791183E1,2.162596226E0,1.567646623E0
3.033690391E1,1.034791183E1,2.162596226E0,1.567646623E0
3.035357057E1,1.556888103E1,1.375622034E0,5.193444729E0
3.037023724E1,1.556888103E1,1.375622034E0,5.193444729E0
3.038690390E1,1.912082291E1,2.387066841E0,7.302995205E0
3.040357057E1,2.235827065E1,1.122966766E0,8.958193779E0
3.042023724E1,2.525277519E1,1.919939041E0,1.013482857E1
3.042023724E1,2.525277519E1,1.919939041E0,1.013482857E1
3.045357057E1,3.266648865E1,2.952242136E0,1.251645470E1
3.047023724E1,3.512415695E1,1.510549664E0,1.135595703E1
3.048690390E1,3.445132828E1,1.603166938E0,9.483968735E0
3.050357057E1,3.508535767E1,-2.142427564E-1,8.057657242E0
3.052023723E1,3.119552040E1,-3.702154160E0,6.389568806E0
3.053690390E1,2.478400993E1,-4.133570194E0,4.409525871E0
3.055357056E1,1.941508102E1,-1.941161275E0,2.852250814E0
3.057023723E1,1.485576248E1,-1.329260767E-1,1.955038071E0
3.058690390E1,9.692149162E0,1.231711388E0,1.403174520E0
3.060357056E1,5.142946243E0,2.561977863E0,4.756129384E-1
3.062023723E1,2.414695978E0,4.090139389E0,-2.113697082E-1
3.063690390E1,1.424731970E0,5.062012672E0,-2.093490064E-1
3.065357056E1,4.490852058E-1,4.950021267E0,-5.617946386E-1
3.067023723E1,-7.305475473E-1,4.098700523E0,-9.218825698E-1
3.068690389E1,-1.074900746E0,3.530729294E0,-1.197158337E0
3.070357056E1,-1.520346761E0,3.239134550E0,-1.380420089E0
3.072023722E1,-1.544078112E0,3.356785536E0,-1.819526196E0
3.073690389E1,-1.544078112E0,3.356785536E0,-1.819526196E0
3.075357056E1,-1.544078112E0,3.356785536E0,-1.819526196E0
3.077023722E1,-1.544078112E0,3.356785536E0,-1.819526196E0
3.078690389E1,-1.544078112E0,3.356785536E0,-1.819526196E0
3.080357056E1,-1.544078112E0,3.356785536E0,-1.819526196E0
3.082023722E1,-1.642144680E0,-3.951103091E-1,-1.658616662E0
3.083690389E1,-1.836553812E0,-9.660125375E-1,-1.576035857E0
3.085357055E1,-1.836553812E0,-9.660125375E-1,-1.576035857E0
3.087023722E1,-2.218285322E0,3.662554026E-1,-1.854931712E0
3.088690389E1,-2.218285322E0,3.662554026E-1,-1.854931712E0
3.090357055E1,-4.003488421E-1,-6.340985775E0,4.534493446E0
3.092023722E1,2.665033579E0,-1.131782246E1,4.941833496E0
3.093690388E1,2.665033579E0,-1.131782246E1,4.941833496E0
3.095357055E1,-2.099236101E-2,-1.702090645E1,1.193804455E1
3.097023722E1,7.273584604E-2,-2.396136093E1,1.561684227E1
3.098690388E1,4.309141636E0,-2.784598160E1,1.796879959E1
3.100357055E1,6.940264225E0,-2.583280563E1,2.048212624E1
3.102023721E1,1.043130684E1,-2.153317261E1,2.057769585E1
3.103690388E1,1.290048504E1,-1.735213089E1,1.897396278E1
3.105357055E1,1.279461384E1,-1.341448212E1,1.521020031E1
3.107023721E1,1.065166855E1,-1.106066608E1,1.020673084E1
3.108690388E1,8.128822327E0,-9.270330429E0,5.340037346E0
3.110357054E1,6.254698753E0,-6.749273777E0,1.362434864E0
3.112023721E1,4.607698917E0,-4.075965405E0,-4.308797121E-1
3.113690388E1,2.149839878E0,2.110000372E0,-3.185878038E0
3.115357054E1,2.149839878E0,2.110000372E0,-3.185878038E0
3.117023721E1,-2.879075408E-1,4.242400646E0,-1.545418978E0
3.118690387E1,-2.879075408E-1,4.242400646E0,-1.545418978E0
3.120357054E1,-4.727657795E0,4.038826525E-1,-1.043115377E0
3.122023721E1,-5.003852844E0,6.111247540E-1,-8.597865701E-1
3.123690387E1,-5.003852844E0,6.111247540E-1,-8.597865701E-1
3.125357054E1,-2.333322048E0,3.692845345E0,-1.280898005E-1
3.127023720E1,-7.095647454E-1,3.860449314E0,3.849972188E-1
3.128690387E1,9.292375445E-1,3.529532194E0,2.694817781E-1
3.130357054E1,2.412819147E0,2.607601881E0,7.298867702E-1
3.132023720E1,3.274032354E0,1.507781982E0,8.626308441E-1
3.133690387E1,4.003871441E0,1.082964420E0,8.002762794E-1
3.135357053E1,4.408845901E0,7.427579761E-1,1.253872156E0
3.137023720E1,4.914664268E0,4.300752282E-1,1.179824352E0
3.138690386E1,6.055788517E0,3.041976988E-1,8.349921703E-1
3.140357053E1,7.367993355E0,9.029875398E-1,6.325768232E-1
3.142023720E1,8.802454948E0,1.687040687E0,1.364474773E0
3.143690386E1,1.261599731E1,1.835471630E0,4.219301701E0
3.145357053E1,1.557548809E1,2.992321253E0,5.490144253E0
3.147023720E1,1.802044678E1,2.162988663E0,7.759617329E0
3.148690386E1,2.033695221E1,2.007643461E0,9.090754509E0
3.150357053E1,2.554911995E1,4.209561825E0,1.064116287E1
3.152023719E1,3.083786392E1,5.192180634E0,1.024321842E1
3.153690386E1,3.845401001E1,4.667927265E0,1.084719944E1
3.155357052E1,3.843581772E1,4.605189323E0,9.311567307E0
3.157023719E1,3.843581772E1,4.605189323E0,9.311567307E0
3.158690386E1,2.713006783E1,6.115748882E-1,5.794686317E0
3.160357052E1,2.713006783E1,6.115748882E-1,5.794686317E0
3.162023719E1,1.763649368E1,1.070715666E0,3.034698486E0
3.163690386E1,1.296318436E1,5.422005057E-1,1.486071467E0
3.165357052E1,8.928945541E0,5.617275834E-1,2.561125457E-1
3.167023719E1,5.396090508E0,9.993493557E-1,-2.350340039E-1
3.168690385E1,3.138300419E0,1.763415813E0,-3.310606480E-1
3.170357052E1,1.587422729E0,2.502630472E0,-3.072909713E-1
3.172023719E1,1.058361650E0,3.087553024E0,-5.700498819E-1
3.173690385E1,4.121953547E-1,3.071425438E0,-8.533318043E-1
3.175357052E1,-3.849876300E-2,2.646962404E0,-1.279834867E0
3.177023718E1,-3.763397932E-1,2.151075125E0,-1.449296474E0
3.178690385E1,-5.594387054E-1,1.821173429E0,-1.422471762E0
3.180357052E1,-6.398743391E-1,1.833642483E0,-1.530919552E0
3.182023718E1,-6.899131536E-1,2.176434517E0,-1.554890394E0
3.183690385E1,-6.968276501E-1,2.430689335E0,-1.386616349E0
3.185357051E1,-5.837063789E-1,2.646857023E0,-1.000805020E0
3.187023718E1,-2.190215737E-1,3.008937120E0,-6.604548693E-1
3.188690385E1,3.679600954E-1,3.049954414E0,-8.549215794E-1
3.190357051E1,4.426017106E-1,2.184335470E0,-8.005348444E-1
3.192023718E1,-7.427770644E-2,1.128511667E0,-4.610944986E-1
3.193690384E1,-7.427770644E-2,1.128511667E0,-4.610944986E-1
3.195357051E1,-7.427770644E-2,1.128511667E0,-4.610944986E-1
3.197023718E1,-7.427770644E-2,1.128511667E0,-4.610944986E-1
3.198690384E1,-7.427770644E-2,1.128511667E0,-4.610944986E-1
3.200357051E1,4.477396488E0,-1.309207916E1,9.941644669E0
3.202023717E1,5.549683094E0,-1.725977135E1,1.560193920E1
3.203690384E1,9.943503380E0,-2.257623100E1,1.789357376E1
3.205357050E1,1.203779697E1,-2.587411880E1,1.975156975E1
3.207023717E1,1.203779697E1,-2.587411880E1,1.975156975E1
3.208690384E1,7.821244240E0,-1.939998627E1,2.171158791E1
3.210357050E1,9.826771736E0,-1.667563438E1,1.848478889E1
3.212023717E1,9.874798775E0,-1.477038574E1,1.396212196E1
3.213690384E1,9.212897301E0,-1.254517651E1,8.747857094E0
3.215357050E1,7.462266922E0,-9.135661125E0,4.173601151E0
3.217023717E1,5.350188255E0,-5.374705315E0,1.179307103E0
3.218690383E1,3.188884974E0,-1.813425779E0,-6.844543815E-1
3.220357050E1,1.420068145E0,1.157136798E0,-1.791590691E0
3.222023716E1,8.289492130E-1,3.500485659E0,-1.987005472E0
3.223690383E1,8.561856747E-1,4.069893837E0,-1.486655593E0
3.225357050E1,5.386379361E-1,2.565291166E0,-1.423132658E0
3.227023716E1,-6.318298578E-1,4.311095178E-1,-1.218696475E0
3.228690383E1,-2.212462664E0,-7.137115598E-1,-7.856045961E-1
3.230357050E1,-3.278543234E0,-1.698542535E-1,-7.785465121E-1
3.232023716E1,-3.822994232E0,1.305969954E0,-1.257511377E0
3.233690383E1,-3.822994232E0,1.305969954E0,-1.257511377E0
3.235357049E1,-3.822994232E0,1.305969954E0,-1.257511377E0
3.237023716E1,-1.715780646E-1,1.664496899E0,-1.269970775E0
3.237023716E1,-1.715780646E-1,1.664496899E0,-1.269970775E0
3.240357049E1,-1.715780646E-1,1.664496899E0,-1.269970775E0
3.242023716E1,4.195838451E0,2.506470680E0,1.771134585E-1
3.243690382E1,4.195838451E0,2.506470680E0,1.771134585E-1
3.245357049E1,7.323786736E0,3.018370152E0,4.525328279E-1
3.247023716E1,7.323786736E0,3.018370152E0,4.525328279E-1
3.248690382E1,1.172995949E1,1.681361675E0,9.645664096E-1
3.250357049E1,1.647232819E1,1.091650605E0,2.874583960E0
3.252023715E1,1.647232819E1,1.091650605E0,2.874583960E0
3.253690382E1,2.212823677E1,-2.042752028E0,4.445448399E0
3.255357048E1,2.565258789E1,-2.287430048E0,5.888586998E0
3.257023715E1,2.695662308E1,2.060928792E-1,8.245525360E0
3.258690382E1,3.116596413E1,8.744582534E-1,8.319477081E0
3.260357048E1,3.567057037E1,-8.141434789E-1,8.714759827E0
3.262023715E1,3.612785339E1,-1.422117591E0,8.768505096E0
3.263690382E1,3.446087646E1,-4.474380016E-1,7.182720184E0
3.265357048E1,3.273325729E1,-2.405253410E0,4.824086189E0
3.267023715E1,2.603536415E1,-2.984899282E0,2.878989220E0
3.268690381E1,2.028086090E1,-8.387846351E-1,2.457025528E0
3.270357048E1,1.503623867E1,-1.376857460E-1,1.677406549E0
3.272023714E1,1.081702232E1,-2.674897909E-1,2.681027055E-1
3.273690381E1,5.437011719E0,7.728099823E-1,-1.223954201E0
3.275357048E1,5.437011719E0,7.728099823E-1,-1.223954201E0
3.277023714E1,1.827379227E0,2.300885201E0,-8.856822252E-1
3.278690381E1,1.182017326E0,3.000020981E0,-8.269476891E-1
3.280357048E1,1.182017326E0,3.000020981E0,-8.269476891E-1
3.282023714E1,-1.225927025E-1,2.843181610E0,-5.380154252E-1
3.283690381E1,-1.867190152E-1,2.710485458E0,-5.152130723E-1
3.285357047E1,3.880043328E-1,3.091517925E0,-8.909112215E-1
3.287023714E1,5.837829709E-1,3.377921581E0,-9.853097796E-1
3.288690380E1,6.265721321E-1,3.307455540E0,-1.058313727E0
3.290357047E1,5.292526484E-1,2.966138124E0,-1.062297702E0
3.292023714E1,3.269330561E-1,2.421390057E0,-9.739516377E-1
3.293690380E1,-2.600773275E-1,1.524493575E0,-8.872049451E-1
3.295357047E1,-9.653517008E-1,4.492096901E-1,-8.322820067E-1
3.297023714E1,-1.008342028E0,-1.858475208E-1,-8.183476925E-1
3.298690380E1,1.332133822E-2,3.762727380E-1,-1.303757668E0
3.300357047E1,5.407448411E-1,1.117029190E0,-1.472558618E0
3.302023713E1,-1.646990538E0,-1.200366616E0,1.295330167E0
3.303690380E1,-7.330471277E-1,-6.177815914E0,4.610485554E0
3.305357046E1,2.832484484E0,-1.007428360E1,3.673222542E0
3.307023713E1,1.607505322E0,-1.534933186E1,8.748584747E0
3.308690380E1,4.244632125E-1,-2.397378349E1,1.387372875E1
3.310357046E1,3.163439512E0,-2.959031296E1,1.549199772E1
3.312023713E1,2.760169744E0,-2.643760681E1,1.894759750E1
3.313690380E1,2.760169744E0,-2.643760681E1,1.894759750E1
3.313690380E1,4.743727684E0,-2.041447639E1,1.822934532E1
3.317023713E1,4.743727684E0,-2.041447639E1,1.822934532E1
3.318690379E1,5.000951290E0,-1.057563019E1,5.462926865E0
3.320357046E1,3.956877947E0,-6.551301956E0,2.733508110E0
3.322023713E1,2.381828308E0,-2.267289877E0,4.970458448E-1
3.323690379E1,1.836936831E0,2.091000080E0,-6.947206855E-1
3.325357046E1,1.836936831E0,2.091000080E0,-6.947206855E-1
3.327023712E1,1.823816657E0,7.591860294E0,-5.106928349E-1
3.328690379E1,3.067642748E-1,5.274550915E0,1.361534595E-1
3.330357046E1,-1.838497877E0,1.978597045E0,4.736784399E-1
3.332023712E1,-3.406422377E0,1.069777250E0,4.180659056E-1
3.333690379E1,-3.412062883E0,2.448588371E0,3.940377235E-1
3.335357045E1,-2.296202183E0,3.989036798E0,6.292728186E-1
3.337023712E1,-5.512410402E-1,4.343742847E0,2.990549207E-1
3.338690378E1,8.016936779E-1,3.195770741E0,4.115920067E-1
3.340357045E1,1.852585435E0,1.877504230E0,2.041104883E-1
3.342023712E1,3.042350292E0,1.023511648E0,1.186279058E-1
3.343690378E1,3.900949478E0,9.992344379E-1,-1.017056871E-2
3.345357045E1,3.890692711E0,9.622392654E-1,-1.650658399E-1
3.347023712E1,4.239872456E0,5.951219201E-1,-5.074462295E-1
3.348690378E1,5.630769730E0,5.653284788E-1,-5.416067243E-1
3.350357045E1,6.890895367E0,1.266302824E0,-6.560016870E-1
3.352023711E1,7.761609554E0,1.616383076E0,-2.398032323E-2
3.353690378E1,7.761609554E0,1.616383076E0,-2.398032323E-2
3.355357045E1,1.840200615E1,-2.944868058E-2,3.899110556E0
3.357023711E1,1.840200615E1,-2.944868058E-2,3.899110556E0
3.358690378E1,2.327697372E1,1.151093841E0,8.581786156E0
3.360357044E1,2.893365097E1,5.002138615E0,9.029578209E0
3.362023711E1,2.893365097E1,5.002138615E0,9.029578209E0
3.363690378E1,3.824371338E1,4.378774643E0,9.940600395E0
3.365357044E1,4.052389526E1,4.302207947E0,8.921667099E0
3.367023711E1,3.691238403E1,2.641886711E0,6.370013237E0
3.368690377E1,3.170250511E1,-1.277047992E0,4.079327106E0
3.370357044E1,2.697754860E1,-2.779036045E0,3.043375254E0
3.372023710E1,2.170292282E1,-1.408326864E0,2.960583687E0
3.373690377E1,1.598951340E1,-4.711405933E-1,2.581361294E0
3.375357044E1,1.096200562E1,5.783146620E-1,1.948813081E0
3.377023710E1,7.583203316E0,2.126970530E0,1.051849365E0
3.378690377E1,4.938845158E0,3.618893385E0,3.744243979E-1
3.380357044E1,2.691906214E0,4.564191341E0,-7.606857270E-2
3.382023710E1,1.333474636E0,4.901199341E0,-5.588067174E-1
3.383690377E1,1.885960549E-1,4.884793758E0,-1.228828907E0
3.385357043E1,-1.466295242E0,4.126368046E0,-1.374884605E0
3.387023710E1,-2.517168045E0,3.196297646E0,-1.131222010E0
3.388690376E1,-2.506365299E0,2.662505627E0,-1.024919391E0
3.390357043E1,-2.033338070E0,2.362741947E0,-9.999718666E-1
3.392023710E1,-1.389182806E0,2.136633635E0,-8.341973424E-1
3.393690376E1,-1.389182806E0,2.136633635E0,-8.341973424E-1
3.395357043E1,-1.389182806E0,2.136633635E0,-8.341973424E-1
3.397023710E1,-1.389182806E0,2.136633635E0,-8.341973424E-1
3.398690376E1,-1.389182806E0,2.136633635E0,-8.341973424E-1
3.400357043E1,-1.389182806E0,2.136633635E0,-8.341973424E-1
