"Time (s)","Acceleration x (m/s^2)","Acceleration y (m/s^2)","Acceleration z (m/s^2)"
8.675944000E-3,2.211600780E0,9.088370323E0,3.366611481E0
2.467594400E-2,8.793328404E-1,9.345842361E0,3.667926550E0
4.067594400E-2,7.782112807E-2,9.295938492E0,3.292927504E0
5.667594400E-2,5.368949771E-1,9.240191460E0,2.581102610E0
7.267594400E-2,1.286845088E0,9.238218307E0,2.407341003E0
8.867594400E-2,1.287180305E0,9.290489197E0,2.802154541E0
1.046775070E-1,9.215282798E-1,9.238430023E0,3.146670580E0
1.206759440E-1,7.979490757E-1,9.141704559E0,3.150989771E0
1.366759440E-1,7.171591520E-1,9.133649826E0,3.075993538E0
1.526759440E-1,6.447680593E-1,9.207122803E0,3.081797361E0
1.686759440E-1,6.675992012E-1,9.345536232E0,3.105748892E0
1.846759440E-1,7.851161957E-1,9.453916550E0,3.161533594E0
2.006790690E-1,8.272157907E-1,9.461099625E0,3.261726379E0
2.166759440E-1,7.785081863E-1,9.393995285E0,3.291701555E0
2.326806320E-1,7.467132211E-1,9.343123436E0,3.296327353E0
2.486759440E-1,7.507258654E-1,9.358800888E0,3.278294086E0
2.646759440E-1,8.317360878E-1,9.412459373E0,3.246279001E0
2.806759440E-1,8.912080526E-1,9.431468964E0,3.262501955E0
2.966759440E-1,9.063681364E-1,9.352814674E0,3.271849155E0
3.126759440E-1,8.716522455E-1,9.297163963E0,3.263095617E0
3.286759440E-1,7.753286958E-1,9.280844688E0,3.171024323E0
3.446759440E-1,6.705679893E-1,9.265177727E0,3.067498922E0
3.606759440E-1,5.470942259E-1,9.292241096E0,2.933577061E0
3.766759440E-1,4.424484968E-1,9.416864395E0,2.866156340E0
3.926759440E-1,3.555772603E-1,9.602434158E0,2.864614487E0
4.086759440E-1,2.443043292E-1,9.653842926E0,2.903027058E0
4.246759440E-1,1.061493307E-1,9.781376839E0,2.535536051E0
4.406759440E-1,-3.879277110E-1,9.879644394E0,2.182544708E0
4.566759440E-1,-1.110411644E0,9.475847244E0,2.135292768E0
4.726759440E-1,-1.354170084E0,9.580801010E0,1.853772998E0
4.886759440E-1,-1.170036793E0,9.918201447E0,1.336807251E0
5.046759440E-1,-7.667862177E-1,9.868544579E0,1.151668429E0
5.206759440E-1,-5.192736387E-1,9.421690941E0,1.269195080E0
5.366759440E-1,-2.311458141E-1,9.144442558E0,1.498348832E0
5.526759440E-1,1.286644042E-1,9.276516914E0,1.518192053E0
5.686759440E-1,2.483457476E-1,9.576385498E0,1.782243729E0
5.846759440E-1,3.228054345E-1,9.617709160E0,2.005890846E0
6.006759440E-1,4.976108670E-1,9.260906219E0,2.374521255E0
6.166759440E-1,7.913889885E-1,8.670428276E0,2.569208145E0
6.326759440E-1,8.666244149E-1,7.919387341E0,2.367252588E0
6.486759440E-1,4.384166300E-1,7.138494015E0,1.767849803E0
6.646759440E-1,-2.634196579E-1,6.942160130E0,1.160287619E0
6.806759440E-1,-8.221784830E-1,7.422274590E0,1.211006403E0
6.966759440E-1,-1.195999503E0,8.156298637E0,2.045950651E0
7.126759440E-1,-1.168878078E0,8.843223572E0,3.187937021E0
7.286759440E-1,-7.243130207E-1,9.775669098E0,3.877409697E0
7.446759440E-1,-2.510176897E-1,1.073936462E1,4.147686481E0
7.606759440E-1,2.297859043E-1,1.134139061E1,3.763417006E0
7.766759440E-1,6.330652237E-1,1.101859474E1,3.445016861E0
7.926759440E-1,1.135876298E0,1.053776264E1,3.670550585E0
8.086759440E-1,2.263660192E0,1.005093575E1,4.192448139E0
8.246759440E-1,3.239747524E0,9.901546478E0,4.443504333E0
8.406759440E-1,3.352389812E0,1.019535351E1,4.065536499E0
8.567353190E-1,3.111600399E0,1.044098949E1,4.024767876E0
8.726759440E-1,4.042983055E0,1.093910789E1,4.568059921E0
8.886759440E-1,4.820217609E0,1.070283794E1,5.566815853E0
9.046759440E-1,4.565675735E0,1.036788940E1,5.667248249E0
9.206759440E-1,4.458013058E0,1.073243999E1,4.924460888E0
9.366759440E-1,5.239116669E0,1.193543053E1,4.477425098E0
9.526759440E-1,6.825821400E0,1.274538898E1,4.430681229E0
9.686759440E-1,7.997543335E0,1.191294479E1,4.899743080E0
9.846759440E-1,8.026130676E0,1.081978989E1,5.058325768E0
1.000675944E0,8.951115608E0,1.075565434E1,4.817191601E0
1.016675944E0,1.118075848E1,1.102053928E1,4.976865292E0
1.032675944E0,1.269812775E1,1.126903820E1,5.466048717E0
1.048675944E0,1.226051521E1,1.057470036E1,5.442441940E0
1.064675944E0,1.105944061E1,8.778598785E0,5.006189346E0
1.080675944E0,9.702397346E0,7.490116119E0,4.343838215E0
1.096675944E0,8.391293526E0,6.267071724E0,3.735644341E0
1.112675944E0,7.644648075E0,4.965152740E0,2.704413652E0
1.128675944E0,6.932075500E0,3.915841341E0,1.679886818E0
1.144675944E0,5.973762989E0,2.981106758E0,1.979238540E-1
1.160677507E0,5.042217255E0,2.406440973E0,-6.847512722E-1
1.176675944E0,3.927716494E0,1.170410275E0,-9.386898875E-1
1.192675944E0,2.866165876E0,2.183512086E-3,-6.404106617E-1
1.208675944E0,1.830204368E0,-7.829901576E-1,-5.036250949E-1
1.224675944E0,1.643868446E0,-8.022682667E-1,-4.126741886E-1
1.240675944E0,2.480718613E0,-1.892855763E-1,-3.588142097E-1
1.256675944E0,3.177163124E0,9.775429964E-1,-4.019864500E-1
1.272675944E0,3.336176395E0,2.238310575E0,-1.087005854E0
1.288675944E0,3.758264542E0,3.108736753E0,-1.763607264E0
1.304675944E0,3.421218395E0,3.505120754E0,-2.644156218E0
1.320675944E0,2.744894743E0,2.753312826E0,-2.425383806E0
1.336675944E0,2.131624699E0,6.453619003E-1,-2.009032011E0
1.352675944E0,2.346442223E0,-1.338540673E0,-1.499517202E0
1.368675944E0,3.373066187E0,-3.102847099E0,1.647459745E0
1.384675944E0,5.537003517E0,-4.974892616E0,4.456040382E0
1.400675944E0,7.085745335E0,-4.842828751E0,2.484510988E-1
1.416675944E0,5.914712429E0,-5.146537781E0,3.836468980E-2
1.432675944E0,5.605639935E0,-5.443734646E0,1.784245253E0
1.448675944E0,9.128373146E0,-5.877200127E0,2.298730373E0
1.464675944E0,1.095983219E1,-3.343378067E0,-6.727706641E-2
1.480675944E0,1.570880795E1,-1.321244955E0,-1.997041941E0
1.496675944E0,1.895043182E1,-2.371217310E-2,-5.754032731E-1
1.512675944E0,1.992237282E1,2.240704536E0,-1.457216501E0
1.528675944E0,2.226838493E1,4.183771610E0,-1.688094139E0
1.544675944E0,2.084048271E1,6.381007195E0,-2.200817108E0
1.560675944E0,1.572104645E1,8.724575996E0,-2.328840017E0
1.576675944E0,1.158537865E1,9.820661545E0,-1.128866076E0
1.592675944E0,1.049568272E1,7.564825058E0,4.277289212E-1
1.608675944E0,9.713678360E0,5.418729305E0,1.554890275E-1
1.624675944E0,7.968879700E0,4.377299786E0,6.919625998E-1
1.640675944E0,6.164811134E0,3.060565472E0,5.275479555E-1
1.656675944E0,4.661654472E0,1.000766754E0,5.016331375E-2
1.672675944E0,3.655179977E0,-1.038757920E0,6.452852488E-2
1.688675944E0,2.550390005E0,-2.789005518E0,5.201833844E-1
1.704675944E0,1.918895125E0,-3.512437582E0,3.096660376E-1
1.720675944E0,2.029516935E0,-3.054857731E0,-8.982757330E-1
1.736675944E0,2.398492098E0,-2.421486139E0,-2.591187000E0
1.752675944E0,2.430794716E0,-2.326656580E0,-2.522387266E0
1.768675944E0,1.250999093E0,-1.486109734E0,-1.785088062E0
1.784675944E0,4.376026094E-1,2.594356984E-2,-1.352446318E0
1.800675944E0,5.871157050E-1,2.335007668E0,-7.921168208E-1
1.816675944E0,2.425134778E-1,7.683922291E0,-5.013362765E-1
1.832675944E0,-1.701281428E0,1.811253738E1,1.184440255E0
1.848675944E0,-5.320624828E0,2.648113441E1,6.462275982E0
1.864675944E0,-8.910941124E0,2.229595566E1,1.249691868E1
1.880675944E0,-5.065690517E0,2.864864540E1,1.535946465E1
1.896675944E0,-8.778867126E-1,2.884209633E1,1.069496536E1
1.912675944E0,-2.844110489E0,2.850775909E1,5.061389923E0
1.928675944E0,-5.764978886E0,2.764103889E1,5.514420986E0
1.944675944E0,-5.444855213E0,2.422788429E1,7.291646481E0
1.960675944E0,-3.754845619E0,2.181824684E1,8.624987602E0
1.976675944E0,-1.056120753E0,1.896289062E1,7.740262508E0
1.992675944E0,2.805879831E0,1.517036152E1,6.018429279E0
2.008675944E0,6.027019501E0,1.075950432E1,4.884611607E0
2.024675944E0,7.038321018E0,6.653936386E0,3.757680416E0
2.040675944E0,6.273928642E0,3.445639372E0,2.771039486E0
2.056675944E0,5.472369194E0,1.326885700E0,2.257933378E0
2.072675944E0,4.185275555E0,3.577224612E-1,1.624360442E0
2.088675944E0,2.411286592E0,-2.562753558E-1,7.881137133E-1
2.104675944E0,1.748744011E0,-1.086201370E-1,-4.698094130E-1
2.120675944E0,2.534185886E0,6.753851175E-1,-1.274079204E0
2.136675944E0,3.061187983E0,2.264139175E0,-1.695975780E0
2.152675944E0,2.247848988E0,3.682445049E0,-1.365260005E0
2.168675944E0,1.515318990E0,4.633699894E0,-1.043824077E0
2.184675944E0,1.427892327E0,5.139460564E0,-1.062613726E0
2.200675944E0,1.549211264E0,5.588028431E0,-6.381409168E-1
2.216675944E0,2.391137123E0,6.508130074E0,-8.173229694E-1
2.232675944E0,3.515166998E0,6.608064175E0,-6.144766808E-1
2.248675944E0,2.724917412E0,5.812126160E0,-3.122134805E-1
2.264675944E0,2.703982592E0,4.030791759E0,-7.681077719E-1
2.280675944E0,3.821576834E0,2.603148460E0,-6.156449914E-1
2.296675944E0,5.513654709E0,-6.857663989E-1,3.944207728E-1
2.312675944E0,6.092495918E0,-5.348014832E0,7.791211009E-1
2.328675944E0,1.055802727E1,-6.679937363E0,4.358778477E0
2.344675944E0,1.621331406E1,-6.439961910E0,6.637809277E0
2.360675944E0,1.965553284E1,-7.362648964E0,8.248408318E0
2.376675944E0,1.665704536E1,-7.748556137E0,8.459968567E0
2.392675944E0,1.463304520E1,-7.869175911E0,6.782974720E0
2.408675944E0,1.384003735E1,-5.626259327E0,4.565780640E0
2.424675944E0,1.375128937E1,-2.918100834E0,2.954914093E0
2.440675944E0,1.388621712E1,-1.123962760E0,1.757526040E0
2.456675944E0,1.332229614E1,3.477051258E-1,-1.006321311E0
2.472675944E0,1.140858173E1,1.685115695E0,-2.713684082E0
2.488675944E0,7.882372379E0,3.320345879E0,-2.802030087E0
2.504675944E0,4.946143150E0,4.767133236E0,-2.182506323E0
2.520675944E0,3.262080669E0,5.426697731E0,-1.522424936E0
2.536675944E0,2.613864899E0,5.504930496E0,-5.682781339E-1
2.552675944E0,2.585996389E0,5.477416515E0,-6.075909138E-1
2.568675944E0,3.374847651E0,4.359783649E0,-9.966486692E-1
2.584675944E0,4.106630325E0,3.287200689E0,-1.112518430E0
2.600675944E0,4.453952789E0,2.209484100E0,-6.009255052E-1
2.616675944E0,3.756368399E0,1.139850736E0,6.978619099E-2
2.632675944E0,2.402495146E0,3.304477334E-1,5.182872415E-1
2.648675944E0,1.042425871E0,6.283342838E-2,7.661637068E-1
2.664675944E0,7.760469317E-1,1.191546321E-1,6.603878736E-1
2.680675944E0,1.169021606E0,1.256572753E-1,2.120783776E-1
2.696675944E0,1.724055052E0,-1.297082603E-1,-2.023962438E-1
2.712675944E0,2.250434637E0,-5.755085945E-1,-7.574200630E-1
2.728675944E0,3.435296297E0,-3.693678677E-1,-1.132907510E0
2.744675944E0,5.688967705E0,1.336577535E0,-3.748266399E-1
2.760675944E0,5.502411842E0,5.788547993E0,2.682712555E0
2.776675944E0,2.424273014E0,1.628285980E1,6.335900307E0
2.792675944E0,2.488533258E0,2.820800591E1,8.964188576E0
2.808675944E0,2.492182016E0,2.676465607E1,8.028313637E0
2.824675944E0,-3.249247789E0,2.598704910E1,8.175671577E0
2.840675944E0,-1.425533581E1,3.072260666E1,1.145905209E1
2.856675944E0,-1.735274124E1,3.049577141E1,1.102932167E1
2.872675944E0,-1.122916031E1,2.854837418E1,9.774433136E0
2.888675944E0,-5.730138779E0,2.793264389E1,8.869597435E0
2.904696257E0,-2.393062115E0,2.508635902E1,7.974185467E0
2.920675944E0,3.161265612E0,2.020684242E1,6.839707375E0
2.936675944E0,7.086281776E0,1.585737228E1,6.224895477E0
2.952675944E0,7.909350395E0,1.254634476E1,6.236943245E0
2.968675944E0,6.617764950E0,9.457891464E0,5.515436172E0
2.984675944E0,5.211995125E0,6.126714230E0,4.108957291E0
3.000675944E0,4.127833366E0,3.446606636E0,2.446117640E0
3.016675944E0,3.000710487E0,1.562906146E0,2.007030487E0
3.032675944E0,1.516583085E0,7.217752337E-1,8.603037000E-1
3.048675944E0,3.919595480E-1,5.540757179E-1,7.031674981E-1
3.064675944E0,4.399201870E-1,1.188376307E0,7.611742020E-1
3.080675944E0,1.114759564E0,2.628057957E0,3.861751854E-1
3.096675944E0,1.719678521E0,4.236051083E0,1.444182452E-2
3.112675944E0,1.897299528E0,5.459527016E0,-3.431273997E-1
3.128675944E0,1.870427012E0,5.856619835E0,-5.477646589E-1
3.144675944E0,9.534381628E-1,5.669421673E0,-1.289967179E0
3.160675944E0,-1.809537709E-1,5.525310040E0,-1.492803931E0
3.176675944E0,-9.792763591E-1,4.931663036E0,-7.477283478E-1
3.192675944E0,-9.104095697E-1,3.950567007E0,-1.716642678E-1
3.208675944E0,-5.616988540E-1,2.563950777E0,-9.307698905E-2
3.224675944E0,3.240982890E-1,1.058514833E0,6.317436695E-1
3.240675944E0,1.669898152E0,8.552088402E-3,1.745037794E0
3.256675944E0,3.862268686E0,-1.856473684E0,1.756271482E0
3.272675944E0,6.542280674E0,-3.757287741E0,-4.118026700E-3
3.288675944E0,8.987200737E0,-5.074098587E0,-5.587013364E-1
3.304675944E0,1.449042702E1,-7.744696617E0,4.128752708E0
3.320675944E0,2.156373215E1,-1.005659580E1,6.483565331E0
3.336675944E0,1.913320541E1,-9.685456276E0,7.100388050E0
3.352675944E0,1.534439087E1,-8.698479652E0,9.120012283E0
3.368675944E0,1.529961872E1,-9.369373322E0,6.753544807E0
3.384675944E0,1.569396400E1,-7.191291332E0,5.116734982E0
3.400675944E0,1.444943810E1,-4.531294823E0,2.883892536E0
3.416675944E0,1.472116089E1,-3.151516438E0,2.116483927E0
3.432675944E0,1.333738899E1,-1.873951316E0,1.342926860E0
3.448675944E0,9.250391006E0,1.073866487E0,8.095274866E-2
3.464675944E0,5.253673553E0,3.941641331E0,-9.010817856E-2
3.480675944E0,2.211313486E0,6.485805988E0,-3.570808172E-1
3.496675944E0,1.492736787E-1,7.783089638E0,-2.126338333E-1
3.512675944E0,-2.895451784E-1,7.214744568E0,-1.028405428E0
3.528675944E0,1.005047560E0,5.106296062E0,-1.878931165E0
3.544675944E0,2.313191414E0,3.690489531E0,-1.104033470E0
3.560675944E0,3.755151987E0,3.056351900E0,3.308499455E-1
3.576675944E0,4.553111076E0,2.440793037E0,9.588490725E-1
3.592675944E0,4.561232090E0,1.724131703E0,6.491159797E-1
3.608675944E0,4.137774467E0,1.036871314E0,4.961743578E-2
3.624675944E0,3.713694096E0,7.007253766E-1,-3.736103773E-1
3.640675944E0,3.797060251E0,1.673355401E-1,-4.770877957E-1
3.656675944E0,3.606137037E0,-5.994601846E-1,-3.641389012E-1
3.672675944E0,3.685260534E0,-9.067704082E-1,-7.718906403E-1
3.688675944E0,3.600745440E0,-7.270041704E-1,-1.352254629E0
3.704675944E0,3.295542002E0,3.775177523E-2,-6.014139056E-1
3.720675944E0,1.930253267E0,2.569189310E0,1.119921446E0
3.736675944E0,-7.639418542E-2,8.595529556E0,3.737521172E0
3.752675944E0,1.278599501E-1,1.863073921E1,6.668014526E0
3.768675944E0,3.486015081E0,2.391302681E1,7.629104614E0
3.784675944E0,8.151491165E0,1.946241760E1,7.202266216E0
3.800675944E0,4.404613018E0,2.113814926E1,7.983829498E0
3.816675944E0,-6.465867043E0,2.951023102E1,1.147355080E1
3.832675944E0,-1.100032234E1,3.377716827E1,1.187919521E1
3.848675944E0,-7.824021339E0,2.950195694E1,9.473665237E0
3.864675944E0,-3.219732046E0,2.716494751E1,9.988887787E0
3.880675944E0,-2.519523621E0,2.427940750E1,9.968785286E0
3.896675944E0,-1.236777544E0,2.128901100E1,7.893950939E0
3.912675944E0,2.614276648E0,1.745999336E1,5.335219860E0
3.928675944E0,5.831470490E0,1.383912754E1,4.596924782E0
3.944675944E0,6.169129848E0,1.044110489E1,4.720034599E0
3.960675944E0,5.099879265E0,7.895655632E0,4.178322315E0
3.976675944E0,4.141671658E0,5.675272942E0,2.753715038E0
3.992675944E0,3.096718073E0,3.406815052E0,1.855362654E0
4.008675944E0,1.673001051E0,1.300118566E0,1.256831408E0
4.024675944E0,6.840808988E-1,6.797617674E-2,1.200692177E0
4.040675944E0,-1.435563415E-1,-4.485584795E-1,1.167853236E0
4.056675944E0,1.357033569E-2,-1.445427388E-1,7.782208920E-1
4.072675944E0,1.125533342E0,1.149427533E0,-2.845269442E-2
4.088675944E0,2.181280613E0,2.363948584E0,-2.930790186E-1
4.104675944E0,2.012987375E0,3.446539640E0,-5.229990482E-1
4.120675944E0,1.317701578E0,3.834859848E0,-6.488669515E-1
4.136675944E0,5.399020314E-1,3.605610371E0,-9.067799449E-1
4.152675944E0,3.782359958E-1,3.384558439E0,-1.094811082E0
4.168675944E0,6.624851823E-1,3.496032476E0,-1.527950764E0
4.184675944E0,1.328523278E0,4.113391399E0,-1.863464594E0
4.200675944E0,3.509353876E0,4.340639591E0,-1.971098423E0
4.216675944E0,5.866924286E0,3.960325718E0,-1.616000056E0
4.232675944E0,8.318854332E0,3.340150833E0,-1.821556568E0
4.248675944E0,1.062731552E1,6.101000309E-1,-3.198653460E-1
4.264675944E0,1.275329018E1,-3.326724052E0,2.816625118E0
4.280675944E0,1.420540237E1,-8.619691849E0,5.369131565E0
4.296675944E0,1.852312469E1,-1.039214706E1,5.357850075E0
4.312675944E0,1.959906006E1,-9.363166809E0,8.428710938E0
4.328675944E0,1.559406757E1,-8.642636299E0,8.766943932E0
4.344675944E0,1.278722095E1,-6.421229839E0,6.002005100E0
4.360675944E0,1.224610233E1,-4.056974888E0,4.787254333E0
4.376675944E0,1.281882381E1,-2.219472885E0,4.079480171E0
4.392675944E0,1.370263863E1,-1.246574640E0,2.528334379E0
4.408675944E0,1.349190140E1,3.666863441E-1,8.743624687E-1
4.424675944E0,1.133267593E1,2.057021379E0,-1.045116931E-1
4.440675944E0,7.185009003E0,3.995003223E0,-5.172625184E-1
4.456675944E0,2.561901093E0,5.448111534E0,-9.878763556E-1
4.472675944E0,1.062939286E0,5.706656456E0,-1.009835958E0
4.488675944E0,1.376761675E0,4.993978977E0,-4.523796141E-1
4.504675944E0,1.754528403E0,4.028656483E0,-3.839916289E-1
4.520675944E0,2.202253580E0,3.182114363E0,-4.918743670E-1
4.536675944E0,3.149610519E0,2.729504824E0,1.355309784E-1
4.552675944E0,3.739398241E0,2.388120413E0,5.881692171E-1
4.568675944E0,3.564296007E0,1.956532121E0,5.340506434E-1
4.584675944E0,2.713339090E0,1.470643163E0,5.816952586E-1
4.600675944E0,1.877523422E0,1.028118014E0,8.933244944E-1
4.616675944E0,1.465826035E0,6.927574277E-1,6.628587246E-1
4.632675944E0,1.718117476E0,5.320107341E-1,-2.638410218E-2
4.648675944E0,2.365864038E0,2.259456068E-1,-4.573020935E-1
4.664675944E0,2.570462942E0,-4.626459777E-1,-3.826413155E-1
4.680675944E0,2.105576038E0,-5.519113541E-1,-6.211229563E-1
4.696675944E0,1.522396207E0,1.513719559E0,-1.601625234E-1
4.712675944E0,-2.096363008E-1,7.033886909E0,1.587700486E0
4.728675944E0,-7.118248940E-1,1.727999878E1,6.817154408E0
4.744675944E0,1.021059990E0,2.695204544E1,1.026844311E1
4.760675944E0,4.417905331E0,2.182239342E1,9.867443085E0
4.776675944E0,1.391232252E0,2.543394852E1,1.011056995E1
4.792675944E0,-4.596934319E0,3.348978424E1,1.327043724E1
4.808675944E0,-1.112752151E1,3.242221451E1,1.278319836E1
4.824675944E0,-1.223417854E1,2.954922867E1,8.034701347E0
4.840675944E0,-9.792016983E0,2.701994514E1,7.166200161E0
4.856675944E0,-6.412534237E0,2.239894485E1,7.584246635E0
4.872675944E0,-1.979755878E0,1.822467422E1,5.398580074E0
4.888675944E0,3.675090075E0,1.449884510E1,3.456470728E0
4.904675944E0,7.947897434E0,1.098545933E1,3.565694094E0
4.920675944E0,9.088600159E0,8.173632622E0,4.480355740E0
4.936675944E0,7.075823784E0,5.937016964E0,4.378985405E0
4.952675944E0,4.930513859E0,3.669621468E0,2.948689222E0
4.968675944E0,3.415711880E0,1.288070917E0,2.355386972E0
4.984675944E0,2.272087812E0,-3.696647286E-1,1.767007113E0
5.000675944E0,1.327546477E0,-8.896566033E-1,1.306803226E0
5.016675944E0,8.149001002E-1,-4.166102707E-1,6.982258558E-1
5.032675944E0,7.592779398E-1,8.915624022E-1,1.006235108E-1
5.048675944E0,1.217039824E0,2.716250420E0,-6.024481654E-1
5.064675944E0,1.523172021E0,3.930024624E0,-9.163088799E-1
5.080675944E0,1.262912750E0,4.472780704E0,-1.139735699E0
5.096677507E0,1.494795918E0,4.696523666E0,-1.708665133E0
5.112677507E0,2.038404226E0,4.379483223E0,-1.473430037E0
5.128677507E0,2.316428423E0,3.921482086E0,-1.079986095E0
5.144675944E0,2.413364887E0,3.644635677E0,-8.901641965E-1
5.160675944E0,2.104359627E0,3.730041742E0,-1.079698682E0
5.176675944E0,3.556509972E0,2.772571802E0,-3.913274705E-1
5.192675944E0,6.387653351E0,8.522017002E-1,1.686830044E0
5.208675944E0,8.891729355E0,-1.628631711E0,1.883700490E0
5.224675944E0,1.212398815E1,-3.860430002E0,-6.944333911E-1
5.240675944E0,1.433298397E1,-5.052704334E0,6.443371773E-1
5.256675944E0,1.645692825E1,-8.240765572E0,5.722898483E0
5.272675944E0,1.427566719E1,-8.205408096E0,4.996670246E0
5.288675944E0,1.207139301E1,-8.155666351E0,6.701006889E0
5.304675944E0,1.241594696E1,-7.697866440E0,6.190543652E0
5.320675944E0,1.415642548E1,-5.087515831E0,5.104218006E0
5.336675944E0,1.311659527E1,-2.340849400E0,3.930886507E0
5.352675944E0,1.356936836E1,-1.195788860E0,2.548158407E0
5.368675944E0,1.339888191E1,-1.356842071E-1,2.358767577E-2
5.384675944E0,1.176479149E1,1.947012663E0,-2.031116247E0
5.400675944E0,8.841145515E0,3.873770475E0,-1.192829609E0
5.416675944E0,5.122212410E0,5.538343906E0,-1.178368688E0
5.432675944E0,2.950786591E0,6.268958569E0,-1.613634467E0
5.448675944E0,2.819411755E0,6.246903419E0,-1.448080182E0
5.464675944E0,2.862402201E0,5.316123486E0,-1.984524965E0
5.480675944E0,4.153872967E0,3.692395210E0,-1.725932121E0
5.496675944E0,4.939506531E0,2.411286592E0,-4.564976394E-1
5.512675944E0,3.966205835E0,1.873960853E0,6.315521002E-1
5.528675944E0,2.894647121E0,2.303968906E0,5.271936655E-1
5.544675944E0,2.288914204E0,2.026232004E0,1.138950467E0
5.560675944E0,1.577663898E0,1.422739983E0,1.111283064E0
5.576675944E0,1.079373121E0,1.008198380E0,9.642791152E-1
5.592675944E0,6.893672943E-1,1.401766896E0,5.116409063E-1
5.608675944E0,5.230468512E-1,1.478658915E0,1.208631396E0
5.624675944E0,1.245291352E0,3.517465591E-1,2.718980074E0
5.640675944E0,1.767495513E0,-2.440553457E-1,3.216006517E0
5.656683757E0,9.786060452E-1,7.982268929E-1,2.199514866E0
5.672675944E0,-5.421335101E-1,6.394405365E0,1.960429788E0
5.688675944E0,-1.698379636E0,1.845283890E1,4.570713043E0
5.704675944E0,1.752325773E0,2.518880272E1,7.595116615E0
5.720675944E0,5.594703674E0,1.890003014E1,8.583280563E0
5.736675944E0,3.042714357E0,2.047571182E1,1.057303429E1
5.752675944E0,1.265766472E-1,3.154174042E1,1.441799736E1
5.768675944E0,-8.352124691E-1,3.452857590E1,1.290200806E1
5.784675944E0,-3.028933287E0,2.990624237E1,1.002213764E1
5.800675944E0,-5.179989338E0,2.725387764E1,9.651918411E0
5.816675944E0,-5.852893829E0,2.276487541E1,7.718178272E0
5.832675944E0,-2.680241585E0,1.861078072E1,5.405848503E0
5.848675944E0,2.240235329E0,1.496160507E1,4.310635567E0
5.864675944E0,5.146231651E0,1.143404675E1,4.322702408E0
5.880675944E0,5.659423351E0,9.022242546E0,4.254706860E0
5.896675944E0,5.502861977E0,7.220404625E0,3.323142290E0
5.912675944E0,5.321582317E0,5.070373535E0,3.034277201E0
5.928675944E0,4.699166298E0,2.614027739E0,2.750200510E0
5.944675944E0,3.719238997E0,6.949793100E-1,2.300253153E0
5.960675944E0,2.641589880E0,-3.297965229E-1,1.642623544E0
5.976675944E0,2.168983936E0,-3.392200768E-1,9.373299479E-1
5.992675944E0,2.150883675E0,8.632820845E-1,-9.698431939E-2
6.008675944E0,2.026998281E0,3.680070162E0,-9.858939648E-1
6.024675944E0,1.698121071E0,6.271343231E0,-5.150119662E-1
6.040675944E0,1.087331533E0,6.969147682E0,-4.298741221E-1
6.056675944E0,6.420099735E-1,5.954752922E0,-1.100384593E0
6.072675944E0,8.970786929E-1,4.040550709E0,-1.284307241E0
6.088675944E0,1.350703239E0,2.959654808E0,-1.512723684E0
6.104675944E0,2.041535854E0,2.793305635E0,-1.888460040E0
6.120675944E0,3.135954142E0,3.443417549E0,-1.472252131E0
6.136675944E0,3.572608709E0,2.905603170E0,-6.225116253E-1
6.152675944E0,5.628327847E0,2.099791527E0,-6.881989241E-1
6.168675944E0,8.584879875E0,8.704264164E-1,-7.267359495E-1
6.184675944E0,1.138300228E1,-7.006775141E-1,5.810248479E-2
6.200675944E0,1.416953754E1,-2.980771542E0,3.336080551E0
6.216675944E0,1.628641319E1,-7.078016758E0,7.813391209E0
6.232675944E0,1.666782761E1,-1.001576996E1,8.629871368E0
6.248675944E0,1.502649784E1,-1.039199448E1,7.388142586E0
6.264675944E0,1.270165157E1,-8.773437500E0,5.956122398E0
6.280675944E0,1.230700111E1,-5.990015030E0,2.548828840E0
6.296677507E0,1.187946415E1,-3.618424177E0,1.885567904E0
6.312675944E0,1.242397308E1,-1.844713211E0,9.449052215E-1
6.328677507E0,1.358464241E1,6.247717142E-1,-1.756865233E-1
6.344675944E0,1.184395313E1,2.933289766E0,-1.520806551E0
6.360675944E0,6.033656120E0,4.893920898E0,-8.485146761E-1
6.376675944E0,1.527567744E0,6.737474918E0,-1.952481031E0
6.392675944E0,6.779900789E-1,7.535845757E0,-2.760332584E0
6.408675944E0,2.224481344E0,6.838184834E0,-2.125514984E0
6.424675944E0,3.597182512E0,4.815419197E0,-1.415634036E0
6.440675944E0,4.051784039E0,2.663731337E0,-5.173295140E-1
6.456675944E0,3.827792168E0,1.825732112E0,-2.635728717E-1
6.472675944E0,3.659518003E0,1.942645669E0,-9.788454324E-2
6.488675944E0,3.293483019E0,2.372395277E0,-1.655925661E-1
6.504675944E0,2.487690449E0,2.637021780E0,5.605304986E-2
6.520675944E0,2.039946079E0,2.091498137E0,5.285630822E-1
6.536675944E0,2.225525379E0,1.449105024E0,7.792552114E-1
6.552675944E0,2.569169998E0,8.969158530E-1,6.538947821E-1
6.568675944E0,2.777733564E0,2.765590250E-1,4.673864841E-1
6.584675944E0,3.117585659E0,4.777486026E-1,-7.726854682E-1
6.600675944E0,2.807718754E0,5.950070024E-1,-1.479329318E-1
6.616675944E0,1.868291378E0,3.780856133E0,2.472013235E0
6.632675944E0,1.762889028E0,1.297339344E1,5.446885109E0
6.648675944E0,3.938490391E0,2.374916077E1,6.549922943E0
6.664675944E0,6.600153446E0,2.155509377E1,7.207495213E0
6.680675944E0,3.727484941E0,2.027508545E1,6.062357903E0
6.696675944E0,-5.983292103E0,2.446689224E1,7.687810421E0
6.712675944E0,-1.099304390E1,2.861473274E1,8.234598160E0
6.728675944E0,-6.329637051E0,2.980172157E1,7.409661770E0
6.744675944E0,-2.998555660E0,2.883103561E1,8.676797867E0
6.760675944E0,-2.295062542E0,2.527859306E1,9.022098541E0
6.776675944E0,-1.133922577E0,2.287314034E1,7.216774940E0
6.792675944E0,1.544738889E0,1.982988930E1,5.582646370E0
6.808675944E0,4.759031296E0,1.704773140E1,4.957185268E0
6.824675944E0,6.314515591E0,1.392687988E1,4.555610180E0
6.840675944E0,6.093310356E0,1.080102921E1,3.732139111E0
6.856675944E0,5.322568893E0,8.006143570E0,2.231214046E0
6.872675944E0,4.274157524E0,5.381839752E0,1.458758473E0
6.888675944E0,3.030867815E0,2.969547510E0,8.904610872E-1
6.904675944E0,2.113467216E0,1.103707910E0,3.912796080E-1
6.920675944E0,8.316115737E-1,-4.625884891E-1,3.509229422E-1
6.936675944E0,1.017056853E-1,-9.622296691E-1,-2.337698489E-1
6.952675944E0,4.036432505E-1,-2.065525651E-1,-9.032748342E-1
6.968675944E0,7.996346354E-1,1.329184175E0,-1.162700891E0
6.984675944E0,8.303857446E-1,2.933950424E0,-1.226348400E0
7.000675944E0,1.019546866E0,3.843957663E0,-1.365346193E0
7.016675944E0,1.861721635E0,4.044209003E0,-1.448214412E0
7.032675944E0,3.253633976E0,4.003411770E0,-1.352235556E0
7.048675944E0,4.042494774E0,4.344422817E0,-1.192274213E0
7.064675944E0,4.125333786E0,4.995913506E0,-6.809780002E-1
7.080675944E0,3.969059706E0,5.312130451E0,-5.497087240E-1
7.096675944E0,4.055681705E0,4.658542156E0,-5.557708144E-1
7.112675944E0,5.226934910E0,3.242237568E0,-6.891948581E-1
7.128675944E0,6.916418076E0,1.355108619E0,-1.922984481E0
7.144675944E0,8.348409653E0,-1.340829611E0,-8.491946459E-1
7.160675944E0,9.822500229E0,-4.465233803E0,8.746497631E-1
7.176675944E0,1.382444668E1,-7.172692776E0,3.523173094E0
7.192675944E0,1.648021889E1,-7.596103191E0,6.845625877E0
7.208675944E0,1.478446388E1,-8.004611015E0,5.988319874E0
7.224675944E0,1.400457573E1,-7.252190113E0,3.643007755E0
7.240675944E0,1.360134506E1,-4.405790806E0,2.358432293E0
7.256675944E0,1.335968399E1,-1.452504754E0,1.052883625E0
7.272675944E0,1.387830639E1,7.808161974E-1,-1.489193458E-2
7.288675944E0,1.444410324E1,2.279385328E0,-1.754384756E0
7.304675944E0,1.379882812E1,3.718348503E0,-2.735547781E0
7.320675944E0,1.180990696E1,5.303884983E0,-3.258929968E0
7.336675944E0,7.871493816E0,6.748919487E0,-3.011934519E0
7.352675944E0,5.434598446E0,7.129023075E0,-1.569399118E0
7.368675944E0,4.517465591E0,5.512323856E0,-8.197746873E-1
7.384675944E0,3.394422531E0,2.968398094E0,-7.498639822E-1
7.400675944E0,3.614851713E0,1.583055735E0,-1.169644117E0
7.416675944E0,4.868273735E0,1.375670075E0,-1.623872042E0
7.432675944E0,5.213441372E0,1.317414284E0,-1.321120501E0
7.448675944E0,4.628308296E0,8.369650245E-1,-3.212827146E-1
7.464675944E0,2.793497086E0,4.539406672E-2,2.706213892E-1
7.480675944E0,8.242949247E-1,-7.483124733E-1,3.695210814E-1
7.496675944E0,-4.548983276E-1,-1.100355983E0,-2.736285031E-1
7.512675944E0,-3.783030212E-1,-7.874625325E-1,-9.498564601E-1
7.528675944E0,4.493246078E-1,-1.209550723E-1,-1.336309314E0
7.544675944E0,1.431732625E-2,6.151278615E-1,-8.392443061E-1
7.560675944E0,-1.246545911E0,1.316782236E0,5.035389066E-1
7.576675944E0,-1.623728395E0,3.046344042E0,2.280304670E0
7.592675944E0,-9.625935555E-1,8.081206322E0,3.199649334E0
7.608675944E0,-6.055989265E-1,1.986266136E1,4.534148693E0
7.624675944E0,2.070007563E0,2.825179100E1,6.466930389E0
7.640718132E0,4.287431240E0,2.223039246E1,1.067375278E1
7.656675944E0,2.549384356E0,2.695524406E1,1.248352051E1
7.672675944E0,-1.848122597E0,3.335980988E1,1.265964699E1
7.688675944E0,-4.084134579E0,3.188422585E1,1.013072014E1
7.704675944E0,-4.598571777E0,2.974915314E1,7.623080730E0
7.720675944E0,-5.274569988E0,2.645949173E1,7.392423153E0
7.736675944E0,-4.293751717E0,2.203461266E1,6.941796303E0
7.752675944E0,-1.539040804E0,1.793116188E1,5.407754898E0
7.768675944E0,2.348185062E0,1.454986000E1,4.300091743E0
7.784675944E0,5.701034546E0,1.155034733E1,4.494606018E0
7.800675944E0,6.760900021E0,8.332320213E0,4.769498825E0
7.816675944E0,6.046566010E0,5.309554100E0,4.136107922E0
7.832675944E0,4.703400135E0,2.849741697E0,2.398721933E0
7.848675944E0,2.905402184E0,5.524764061E-1,1.856013894E0
7.864675944E0,1.318544269E0,-1.308574796E0,1.609650493E0
7.880675944E0,5.414822102E-1,-1.891390681E0,8.242183328E-1
7.896675944E0,6.792254448E-1,-1.256678224E0,7.759128511E-2
7.912675944E0,1.586781144E0,1.949359030E-1,-1.635144055E-1
7.928675944E0,2.015630484E0,2.101563215E0,-5.794351101E-1
7.944675944E0,1.610608101E0,3.780205011E0,-1.224145770E0
7.960675944E0,1.244151711E0,4.440612316E0,-1.380764842E0
7.976675944E0,6.022757888E-1,4.581802845E0,-9.511876106E-1
7.992675944E0,-3.172413111E-1,4.414161205E0,-1.096984863E0
8.008675944E0,-9.228019118E-1,4.087792873E0,-2.069538355E0
8.024675944E0,-8.063671179E-3,4.334989071E0,-3.369723797E0
8.040675944E0,2.518192530E0,5.200119972E0,-4.190217018E0
8.056675944E0,5.921627045E0,5.235832214E0,-3.155127048E0
8.072675944E0,9.185709000E0,4.294680595E0,-2.838278294E0
8.088675944E0,1.163109875E1,1.143796444E0,-4.958583415E-1
8.104675944E0,1.085714912E1,-3.818167448E0,3.172547102E0
8.120675944E0,1.485991001E1,-8.526010513E0,5.709060192E0
8.136675944E0,2.112792015E1,-7.332396030E0,6.765908718E0
8.152675944E0,2.099046516E1,-5.544386864E0,9.058730125E0
8.168675944E0,1.619291496E1,-5.718254089E0,6.177681923E0
8.184675944E0,1.181375790E1,-5.604404926E0,4.018322945E0
8.200675944E0,9.517995834E0,-3.231990337E0,3.483841419E0
8.216675944E0,1.046714401E1,-1.162202954E0,1.146410823E0
8.232675944E0,1.197608376E1,6.640653610E-1,-5.572073460E-1
8.248675944E0,1.283761311E1,1.992368460E0,-1.607285023E0
8.264675944E0,1.206738949E1,4.073695660E0,-2.886717796E0
8.280675944E0,9.974551201E0,5.872890472E0,-3.521966457E0
8.296675944E0,6.726356506E0,7.225652695E0,-2.936670303E0
8.312675944E0,3.610475302E0,7.538201809E0,-1.557581425E0
8.328675944E0,2.256171227E0,7.307103634E0,-3.928789496E-1
8.344675944E0,1.963685870E0,6.922489166E0,-3.394307494E-1
8.360675944E0,2.569926500E0,5.777649403E0,-9.348016977E-1
8.376675944E0,3.563826561E0,3.934889555E0,-1.372040391E0
8.392675944E0,4.781479359E0,2.544643879E0,-1.253029466E0
8.408675944E0,5.353128433E0,1.651060700E0,-1.025398374E0
8.424675944E0,5.129021645E0,9.020394087E-1,-7.142478228E-1
8.440675944E0,4.036183357E0,2.233502865E-1,-7.361690998E-1
8.456675944E0,3.011331081E0,-3.347477019E-1,-1.329950333E0
8.472675944E0,2.732531309E0,-3.822486699E-1,-1.946351886E0
8.488675944E0,2.606452465E0,9.864111198E-4,-2.783632994E0
8.504675944E0,1.969824672E0,-1.244314462E-1,-1.986976743E0
8.520675944E0,7.910155058E-1,-8.132145405E-1,3.430412412E-1
8.536675944E0,-8.542415500E-1,4.575702548E-1,2.390533686E0
8.552675944E0,-2.249017358E-1,7.432061672E0,4.019433498E0
8.568675944E0,1.240560412E0,2.112803459E1,7.239060402E0
8.584675944E0,4.393072605E0,2.608992195E1,9.883868217E0
8.600675944E0,4.651129246E0,2.225269699E1,1.074915123E1
8.616675944E0,2.750104427E0,2.781746292E1,1.115383911E1
8.632675944E0,-4.726431847E0,3.118714905E1,1.056957722E1
8.648675944E0,-8.518062592E0,2.963139725E1,8.606828690E0
8.664675944E0,-8.292681694E0,2.740106392E1,7.456683636E0
8.680677507E0,-6.685176373E0,2.524020195E1,8.693787575E0
8.696675944E0,-3.139296293E0,2.283125114E1,8.631527901E0
8.712675944E0,7.653784007E-2,1.956862450E1,6.774010658E0
8.728675944E0,2.064999104E0,1.601383781E1,5.383008480E0
8.744675944E0,3.256114244E0,1.238040733E1,5.160558224E0
8.760675944E0,3.516134262E0,8.874041557E0,4.537223339E0
8.776675944E0,3.700353861E0,5.969386578E0,3.049523354E0
8.792675944E0,3.620588303E0,3.495132208E0,1.910132408E0
8.808675944E0,3.233369350E0,1.312721729E0,1.481455445E0
8.824675944E0,2.536455631E0,-5.351519585E-1,1.356535554E0
8.840675944E0,1.952548146E0,-1.355510831E0,9.080632329E-1
8.856675944E0,1.799338341E0,-1.277833343E0,2.244516164E-1
8.872675944E0,2.037925243E0,-6.261699200E-1,-2.266159803E-1
8.888675944E0,2.057806969E0,6.465302110E-1,-4.412130713E-1
8.904675944E0,1.537039161E0,2.194304943E0,-8.759905100E-1
8.920675944E0,7.922605276E-1,3.743755579E0,-1.866117477E0
8.936675944E0,5.932257175E-1,5.013209343E0,-2.394632578E0
8.952675944E0,1.104761243E0,5.018812180E0,-1.788248420E0
8.968675944E0,1.333311796E0,4.829775333E0,-1.373294950E0
8.984675944E0,2.411210299E0,5.215299129E0,-1.456038594E0
9.000675944E0,4.434061527E0,6.140007019E0,-1.686188340E0
9.016675944E0,5.908612251E0,5.349144459E0,-1.077764273E0
9.032675944E0,6.741325378E0,3.994304180E0,-5.921435356E-1
9.048675944E0,8.020594597E0,2.158966541E0,-1.192724228E0
9.064675944E0,1.046617603E1,3.190992028E-2,-6.716310382E-1
9.080675944E0,1.414634132E1,-3.861531258E0,2.090109348E0
9.096675944E0,1.812611008E1,-8.089787483E0,4.457811832E0
9.112675944E0,1.893317413E1,-9.099613190E0,6.478776932E0
9.128675944E0,1.794726181E1,-6.180842400E0,7.107925415E0
9.144675944E0,1.500176144E1,-5.456854820E0,5.646954536E0
9.160675944E0,1.370815563E1,-4.658302307E0,3.135437012E0
9.176675944E0,1.303774071E1,-2.733757019E0,1.511861801E0
9.192675944E0,1.206084824E1,-1.150461793E0,7.415800095E-1
9.208675944E0,1.195846272E1,-1.200931519E-2,-2.972832322E-1
9.224675944E0,1.130896378E1,1.155652523E0,-1.908734202E0
9.240675944E0,1.024622536E1,2.664976358E0,-2.727685213E0
9.256675944E0,8.314592361E0,4.045176506E0,-2.840289354E0
9.272675944E0,5.636554241E0,5.362082958E0,-2.071099281E0
9.288675944E0,3.549499750E0,5.674105167E0,-1.417175889E0
9.304675944E0,2.448645830E0,5.579438210E0,-1.090932369E0
9.320675944E0,2.508721113E0,4.391492844E0,-7.799638510E-1
9.336675944E0,2.391970158E0,3.020132303E0,-6.718225479E-1
9.352675944E0,2.591704130E0,2.344574690E0,-6.155683994E-1
9.368675944E0,2.891525507E0,2.385582447E0,-6.752319336E-1
9.384675944E0,3.035033703E0,2.100212812E0,-8.583404422E-1
9.400675944E0,2.546137810E0,1.395091772E0,-6.517017484E-1
9.416675944E0,2.174797058E0,7.968956828E-1,-3.255444169E-1
9.432675944E0,2.132649422E0,-1.501739025E-1,-1.415068954E-1
9.448675944E0,2.426178694E0,-7.725418806E-1,-3.876595795E-1
9.464675944E0,2.650342941E0,-8.855865002E-1,-9.141061902E-1
9.480675944E0,2.215910435E0,-5.632024407E-1,-1.182563186E0
9.496675944E0,1.322537899E0,-1.508921683E-1,-6.304124594E-1
9.512675944E0,-1.486894935E-1,9.358551502E-1,2.840672433E-1
9.528675944E0,-2.304658443E-1,5.506433964E0,2.422127724E0
9.544675944E0,-1.956350058E-1,1.623353004E1,5.450745106E0
9.560675944E0,2.688937426E0,2.870412254E1,7.016629219E0
9.576675944E0,6.483316422E0,2.357664299E1,9.838214874E0
9.592675944E0,3.758293152E0,2.355366707E1,1.009948063E1
9.608675944E0,-9.494542480E-1,3.333249664E1,1.168296719E1
9.624675944E0,-3.690824747E0,3.468306732E1,1.292647648E1
9.640675944E0,-4.617466927E0,3.299923325E1,9.478625298E0
9.656675944E0,-6.543582916E0,2.928972435E1,8.965490341E0
9.672675944E0,-6.857903481E0,2.410884476E1,7.478289127E0
9.688675944E0,-3.874690056E0,1.894011688E1,4.695001125E0
9.704675944E0,1.383503795E0,1.445603752E1,2.866357327E0
9.720675944E0,5.430154800E0,1.038540554E1,2.768367529E0
9.736675944E0,7.127748966E0,7.200427532E0,2.952577353E0
9.752675944E0,7.260905266E0,5.205645561E0,2.860496283E0
9.768675944E0,6.354690075E0,3.427931786E0,2.525758266E0
9.784675944E0,4.986289024E0,1.654517770E0,2.375881433E0
9.800675944E0,3.152205944E0,-1.305510253E-1,2.521602154E0
9.816675944E0,2.068867922E0,-1.073694110E0,2.453376770E0
9.832675944E0,1.303039432E0,-8.837381601E-1,1.738755465E0
9.848675944E0,1.619236946E0,7.764204741E-1,9.746795297E-1
9.864675944E0,2.475661993E0,3.210547924E0,7.400285602E-1
9.880675944E0,2.678287983E0,5.642731190E0,4.500524700E-1
9.896675944E0,2.428371906E0,6.875017166E0,5.840128064E-1
9.912675944E0,1.531312227E0,7.420358658E0,-1.987187378E-2
9.928675944E0,1.369349241E0,7.210990906E0,-4.689666331E-1
9.944675944E0,1.562264562E0,6.799226761E0,-8.060606718E-1
9.960675944E0,1.873367071E0,6.409938812E0,-7.580042481E-1
9.976675944E0,1.590870380E0,5.860909939E0,-7.420014143E-1
9.992675944E0,1.814919829E0,4.330392361E0,-7.825974822E-1
1.000870719E1,3.048556089E0,2.492833138E0,-1.710561395E0
1.002467594E1,4.962241650E0,-3.929651082E-1,-8.608686924E-1
1.004067594E1,8.225002289E0,-7.704866886E0,3.707909584E0
1.005667594E1,1.721447182E1,-2.037354469E1,4.230449200E0
1.007267594E1,1.888914108E1,-1.744551277E1,-3.822486639E0
1.008867594E1,1.358059216E1,-1.275218868E1,7.674067974E0
1.010467594E1,1.049113274E1,-1.089350319E1,6.324350357E0
1.012067594E1,1.021829987E1,-9.158041954E0,6.383841991E0
1.013667594E1,9.773571968E0,-6.326793194E0,5.286895275E0
1.015267594E1,9.849238396E0,-4.749387741E0,3.751426697E0
1.016867594E1,1.126928711E1,-3.598935366E0,2.610589504E0
1.018467594E1,1.069538784E1,-1.181107521E0,-2.538619936E-1
1.020067594E1,8.975613594E0,2.173504114E0,-1.181404471E0
1.021667594E1,7.012099743E0,4.515119553E0,-6.451894641E-1
1.023267594E1,4.214982510E0,6.316555023E0,-7.795712352E-1
1.024867594E1,1.256821752E0,7.381017685E0,-1.207022429E0
1.026467594E1,2.245856971E-1,7.262772560E0,-1.719458222E0
1.028067594E1,1.284843564E0,5.569928169E0,-1.893478394E0
1.029667594E1,2.538648605E0,3.379549742E0,-1.791782260E0
1.031267594E1,2.722092628E0,2.091000080E0,-1.169529200E0
1.032867594E1,2.271695137E0,1.636915684E0,-8.554387093E-1
1.034467594E1,1.433992743E0,1.463881969E0,-4.062673151E-1
1.036067594E1,5.532329679E-1,1.579828382E0,-3.637462854E-1
1.037667594E1,1.014758423E-1,1.685872316E0,-1.579885930E-1
1.039267594E1,-4.317990839E-1,1.707889438E0,2.152578831E-1
1.040867594E1,-8.041740656E-1,1.544355869E0,5.763035417E-1
1.042467594E1,-9.295248240E-2,1.170841217E0,1.959797740E0
1.044067594E1,6.112205386E-1,4.259667993E-1,3.320767403E0
1.045667594E1,8.498266339E-1,2.761663795E-1,4.728893280E0
1.047267594E1,2.690498590E0,4.680788994E0,5.884382725E0
1.048867594E1,5.404699802E0,1.941635323E1,7.181149483E0
1.050467594E1,1.079051399E1,3.053848267E1,7.139547825E0
1.052067594E1,1.276274204E1,2.109001541E1,6.996259689E0
1.053667594E1,7.020661354E0,2.141419029E1,7.451742172E0
1.055267594E1,-3.726163149E0,2.912035942E1,1.084626102E1
1.056867594E1,-6.759272099E0,3.292844009E1,9.455889702E0
1.058467594E1,-6.017864227E0,3.309233856E1,1.024684811E1
1.060067594E1,-7.120135784E0,2.978606224E1,1.035692406E1
1.061667594E1,-4.139220238E0,2.580089378E1,7.572984219E0
1.063267594E1,6.637780666E-1,2.211013603E1,5.340410709E0
1.064867594E1,5.488554001E0,1.793053055E1,4.935072422E0
1.066467594E1,8.784277916E0,1.456550026E1,5.279837608E0
1.068067594E1,9.472285271E0,1.141829300E1,5.036289692E0
1.069667594E1,8.317504883E0,8.094585419E0,3.336090326E0
1.071267594E1,6.642779827E0,5.025544643E0,2.513088226E0
1.072867594E1,4.758073807E0,2.175103426E0,2.576716661E0
1.074467594E1,2.804721117E0,3.763493598E-1,2.107749701E0
1.076067594E1,1.390427828E0,-4.128848612E-1,1.254983068E0
1.077667594E1,8.143063188E-1,-4.373919070E-1,6.962338090E-2
1.079267751E1,1.506565809E0,7.189404964E-1,-7.439167500E-1
1.080867594E1,2.128100634E0,2.597191572E0,-7.267455459E-1
1.082467594E1,2.032562494E0,4.513692856E0,-8.029673696E-1
1.084067594E1,1.662236810E0,5.679247379E0,-5.259965062E-1
1.085667594E1,1.596108913E0,6.126053333E0,-6.961572170E-1
1.087267594E1,1.887406588E0,6.418031216E0,-7.220816612E-1
1.088867594E1,1.973234057E0,7.209104061E0,-3.323439360E-1
1.090467594E1,2.479550362E0,7.433450222E0,-3.180553317E-1
1.092067594E1,2.571458817E0,7.277176380E0,-4.149630368E-1
1.093667594E1,1.570165396E0,5.980313301E0,-6.388783455E-1
1.095267594E1,1.323830724E0,3.847118139E0,4.879382849E-1
1.096867594E1,1.570806980E0,-3.845183849E-1,2.121684074E0
1.098467594E1,3.999006271E0,-4.694339752E0,1.710810304E0
1.100067594E1,1.046637726E1,-6.405705452E0,1.819487929E0
1.101667594E1,1.615810394E1,-9.085295677E0,1.039936829E1
1.103267594E1,1.728044701E1,-1.031938267E1,7.863238335E0
1.104867594E1,1.036688423E1,-1.073096466E1,9.331554413E0
1.106467594E1,4.889965534E0,-1.141547775E1,8.766292572E0
1.108067594E1,6.589188099E0,-1.116105938E1,5.781144619E0
1.109667594E1,9.418511391E0,-7.266220093E0,3.496022940E0
1.111267594E1,1.087618732E1,-3.967297554E0,3.048910379E0
1.112867594E1,1.210947990E1,-1.845335722E0,1.281750202E0
1.114467594E1,1.239862251E1,2.468613386E-1,-9.596630931E-1
1.116067594E1,1.120421314E1,2.551711321E0,-1.457312226E0
1.117667594E1,8.899774551E0,5.495344162E0,-1.128444672E0
1.119267594E1,6.719403744E0,8.184300423E0,-8.180891871E-1
1.120867594E1,5.323708534E0,9.443334579E0,-7.872805595E-1
1.122467594E1,4.695039272E0,8.599139214E0,-1.118523240E0
1.124067594E1,3.822620869E0,6.743881702E0,-1.666900635E0
1.125667594E1,3.563146830E0,4.530404091E0,-1.250941634E0
1.127267594E1,2.825474024E0,2.488236427E0,-5.541906953E-1
1.128867594E1,1.910247326E0,1.408930302E0,-3.408289850E-1
1.130467594E1,4.891354144E-1,1.076069236E0,-2.740499079E-1
1.132067594E1,-3.755544722E-1,8.377503157E-1,1.220564023E-1
1.133667594E1,-4.192151427E-1,8.726290464E-1,4.120708406E-1
1.135267594E1,2.100385278E-1,9.802628160E-1,8.393400908E-1
1.136867594E1,6.302688122E-1,9.148244858E-1,1.039782643E0
1.138467594E1,1.467856288E0,4.129231870E-1,1.397668004E0
1.140067594E1,1.489490390E0,-8.654847145E-1,1.650131702E0
1.141667594E1,2.697585344E0,-8.877699822E-2,3.016541004E0
1.143267594E1,2.620568514E0,4.999552727E0,2.815150261E0
1.144867594E1,4.595555305E0,1.595825481E1,4.447488308E0
1.146467594E1,1.100778294E1,2.779936409E1,7.754235268E0
1.148067594E1,1.068754387E1,2.747311020E1,8.453542709E0
1.149667594E1,3.838767111E-1,2.973715401E1,7.533738613E0
1.151267594E1,-7.421124935E0,3.145977211E1,9.650826454E0
1.152867594E1,-9.758679390E0,3.172560501E1,8.675495148E0
1.154467594E1,-1.102980995E1,3.156178284E1,8.482062340E0
1.156067594E1,-7.148377419E0,2.780016708E1,7.591247559E0
1.157667594E1,-5.624458566E-2,2.376790047E1,6.426094532E0
1.159267594E1,6.071168900E0,1.943296814E1,6.307160854E0
1.160867594E1,9.273470879E0,1.517246819E1,6.596561909E0
1.162467594E1,9.856239319E0,1.157439423E1,6.106123924E0
1.164067594E1,9.042890549E0,8.832507133E0,4.245685577E0
1.165667594E1,7.822067738E0,5.755028725E0,2.678220987E0
1.167267594E1,6.023294449E0,2.748074293E0,2.244889736E0
1.168867594E1,4.333572388E0,8.993579149E-1,1.637633920E0
1.170467594E1,2.833470821E0,-2.088701576E-1,9.513983130E-1
1.172067594E1,1.510109305E0,-2.912211418E-1,-1.554315723E-2
1.173667594E1,4.830445647E-1,5.041805506E-1,-2.120305002E-1
1.175267594E1,-5.474773049E-1,2.137916803E0,-2.918723524E-1
1.176867594E1,-8.530541062E-1,3.438236237E0,-5.329875946E-1
1.178467594E1,-1.445044428E-1,4.416746616E0,-8.545001745E-1
1.180067594E1,1.444096327E0,5.181847095E0,-1.013676286E0
1.181667594E1,2.932312965E0,5.893844604E0,-1.255318284E0
1.183267594E1,3.595430136E0,6.425912857E0,-9.672287703E-1
1.184867594E1,3.571009159E0,7.352037907E0,-3.811377585E-1
1.186467594E1,2.954186201E0,7.688068867E0,-3.697509468E-1
1.188067594E1,2.420796394E0,7.066246986E0,-7.565293908E-1
1.189667594E1,2.430459499E0,5.912184238E0,-7.302315235E-1
1.191267594E1,2.332220793E0,4.233868122E0,-2.309255302E-1
1.192867594E1,2.317213774E0,-4.684303701E-1,1.856416106E0
1.194467594E1,4.193051815E0,-8.753095627E0,5.719613552E0
1.196067594E1,1.115500641E1,-1.447411728E1,5.854004860E0
1.197667594E1,1.670968056E1,-1.416454792E1,9.086369514E0
1.199267594E1,1.817681885E1,-1.184253502E1,7.343629360E0
1.200869313E1,1.296698761E1,-1.106332779E1,7.794380665E0
1.202467594E1,8.949391365E0,-1.256523037E1,5.644081593E0
1.204067594E1,1.142782116E1,-9.613456726E0,2.317165852E0
1.205667594E1,1.208700275E1,-5.865880489E0,1.789311409E0
1.207267594E1,1.290243912E1,-3.385458708E0,1.156274915E0
1.208867594E1,1.307751274E1,-1.226281404E0,-1.150979042E0
1.210467594E1,1.186070347E1,1.394775748E0,-2.319933653E0
1.212067594E1,9.154306412E0,3.987054348E0,-1.926987529E0
1.213667594E1,5.437251091E0,6.982306004E0,-1.929324389E0
1.215267594E1,2.888680935E0,9.209134102E0,-1.819200635E0
1.216867594E1,2.408854246E0,8.223049164E0,-2.490553856E0
1.218467594E1,3.188798904E0,5.394874096E0,-2.843105078E0
1.220067594E1,3.511738539E0,2.702172518E0,-2.437862396E0
1.221667594E1,2.361956596E0,1.899157405E0,-1.597239017E0
1.223267594E1,8.153597116E-1,2.083252430E0,-2.787808478E-1
1.224867594E1,1.312405616E-1,1.759326458E0,9.448764920E-1
1.226467594E1,-4.315021932E-1,1.010362625E0,1.092876434E0
1.228067594E1,-1.643092781E-1,1.968512535E-1,1.249083757E0
1.229667594E1,5.009819269E-1,-3.676057458E-1,1.420747995E0
1.231267594E1,9.882498384E-1,-9.787879586E-1,1.865868449E0
1.232867594E1,1.395149112E0,-8.004007339E-1,1.324778795E0
1.234467594E1,1.365374923E0,1.470231265E-1,5.202217698E-1
1.236067594E1,2.039381027E0,2.481475115E0,2.582385838E-1
1.237667594E1,4.082803249E0,6.820467949E0,1.133980155E0
1.239267594E1,6.978848934E0,1.502335739E1,2.426590681E0
1.240867594E1,1.134435081E1,2.441800308E1,6.529514790E0
1.242467594E1,1.349897861E1,2.761711693E1,9.438834190E0
1.244067594E1,3.500428200E0,2.761324883E1,9.367132187E0
1.245667594E1,-1.072245121E1,2.902503204E1,9.246282578E0
1.247267594E1,-1.154290581E1,2.982539368E1,6.353952408E0
1.248867594E1,-8.910212517E0,3.114486694E1,5.382893085E0
1.250467594E1,-7.974482536E0,2.959783936E1,7.451818943E0
1.252067594E1,-6.983263493E0,2.659772301E1,7.247526169E0
1.253667594E1,-4.613655090E0,2.319172287E1,6.321276665E0
1.255267594E1,-2.197024822E0,1.902400208E1,6.006812572E0
1.256867594E1,2.056829929E0,1.341436672E1,5.020564556E0
1.258467594E1,6.080113411E0,8.667796135E0,3.407619476E0
1.260067594E1,8.393343925E0,5.202973843E0,2.235121250E0
1.261667594E1,9.229839325E0,2.217730045E0,9.860855341E-1
1.263267594E1,8.119283676E0,-1.438532174E-1,5.180861354E-1
1.264867594E1,5.911715031E0,-1.833431721E0,-1.087159142E-1
1.266467594E1,3.722868681E0,-2.277374268E0,-3.172796071E-1
1.268067594E1,1.146937490E0,-1.386817396E-1,-6.040092185E-2
1.269667594E1,-1.487278193E-1,2.532385588E0,-5.508579314E-2
1.271267594E1,1.135225058E0,3.069050550E0,4.119463563E-1
1.272867594E1,2.254121780E0,2.722820282E0,-1.640411168E-1
1.274467594E1,3.308566332E0,3.347486496E0,-7.088656425E-1
1.276067594E1,4.654864311E0,4.755842209E0,-7.562421560E-1
1.277667594E1,5.494645119E0,6.455380917E0,-1.110938311E0
1.279267751E1,5.930092812E0,7.881137371E0,-1.199025750E0
1.280867594E1,6.100847244E0,8.612221718E0,-1.536809325E0
1.282467594E1,6.190381050E0,9.049268723E0,-1.690335035E0
1.284067594E1,5.275920391E0,8.238208771E0,-1.708023429E0
1.285667594E1,3.403319359E0,6.497767448E0,-2.201497316E0
1.287267594E1,3.635489941E0,3.400484562E0,-1.006340504E0
1.288867594E1,5.341703415E0,-2.369866848E0,2.807345152E0
1.290469626E1,6.501522064E0,-1.173836899E1,8.859111786E0
1.292067594E1,1.137424946E1,-1.686590576E1,7.219686508E0
1.293667594E1,1.279454708E1,-1.420754719E1,9.849458337E-1
1.295267594E1,8.771042824E0,-1.231963253E1,4.773425102E0
1.296867594E1,6.343820095E0,-1.346666622E1,1.787156582E0
1.298467594E1,6.819586277E0,-1.366082573E1,4.100597203E-1
1.300067594E1,8.250102997E0,-8.715909004E0,-2.392956764E-1
1.301667594E1,9.382138252E0,-4.555093288E0,-2.309351265E-1
1.303267594E1,1.101055050E1,-2.114827156E0,-2.614468336E-3
1.304867594E1,1.202637196E1,2.442755997E-1,-1.649403811E0
1.306467594E1,1.167249012E1,2.899253607E0,-1.754691243E0
1.308067594E1,9.711590767E0,5.016120434E0,-8.321191669E-1
1.309667594E1,6.546484947E0,7.257361889E0,-2.174413949E-1
1.311267594E1,4.147523403E0,8.853633881E0,-4.033463597E-1
1.312867594E1,3.122537136E0,8.102217674E0,-1.488666773E0
1.314467594E1,3.120439768E0,5.988281727E0,-1.686820388E0
1.316067594E1,3.269205809E0,3.822381258E0,-9.205226302E-1
1.317667594E1,3.460109949E0,1.904549241E0,-7.886213660E-1
1.319267594E1,2.990951777E0,4.679706693E-1,-1.186374903E0
1.320867594E1,2.321686029E0,-6.287364960E-1,-1.336424232E0
1.322467594E1,1.854002833E0,-1.014404058E0,-1.207098961E0
1.324067594E1,1.506996751E0,-7.807491422E-1,-1.060794234E0
1.325667594E1,1.237677693E0,-5.255560279E-1,-6.810163260E-1
1.327267594E1,1.275716782E0,-3.150194585E-1,-7.667191625E-1
1.328867594E1,1.863081574E0,-3.891248107E-1,-5.944419503E-1
1.330467594E1,1.460788727E0,-5.372396708E-1,1.225065142E-1
1.332067594E1,-1.146937490E0,5.728558302E-1,1.248825192E0
1.333667594E1,-4.001295090E0,5.977383137E0,4.324416637E0
1.335267594E1,-1.932264447E0,1.871809959E1,1.064145088E1
1.336867594E1,1.082802677E1,3.199133110E1,1.295423031E1
1.338467594E1,1.174520683E1,2.566470337E1,1.614719582E1
1.340067594E1,2.438293219E0,2.632874870E1,1.122606754E1
1.341667594E1,-4.579284191E0,3.222438431E1,5.430011272E0
1.343267594E1,-6.792455673E0,3.199789238E1,8.873993874E0
1.344867594E1,-7.789352894E0,2.961496353E1,9.788827896E0
1.346467594E1,-8.329197884E0,2.560309601E1,8.428308487E0
1.348067594E1,-6.661195755E0,2.181883049E1,6.773416996E0
1.349667594E1,-1.745602846E0,1.822824478E1,5.379618168E0
1.351267594E1,3.463500023E0,1.512663364E1,4.901859760E0
1.352867594E1,6.754780293E0,1.235814190E1,4.868637562E0
1.354467594E1,7.457545280E0,9.672488213E0,4.170986652E0
1.356067594E1,6.748871803E0,6.798536777E0,3.072756767E0
1.357667594E1,5.883769989E0,3.982907772E0,2.468441248E0
1.359267594E1,4.678940296E0,1.979956865E0,1.704594970E0
1.360867594E1,3.308939934E0,6.730388403E-1,7.020469904E-1
1.362467594E1,2.245560169E0,1.451173574E-1,-4.215422869E-1
1.364067594E1,1.453328371E0,3.941813707E-1,-7.665275931E-1
1.365667594E1,1.008456945E0,1.470173955E0,-8.141818047E-1
1.367267594E1,9.111757278E-1,2.793286324E0,-5.671288967E-1
1.368867594E1,7.168527246E-1,3.749329329E0,-3.145693541E-1
1.370467594E1,5.186128020E-1,4.317033291E0,-3.423516750E-1
1.372067594E1,7.517984509E-1,4.509047985E0,-3.914998472E-2
1.373667594E1,1.185321450E0,4.732820034E0,-2.364513576E-1
1.375267594E1,2.246383905E0,5.310023308E0,-2.873808146E-1
1.376867594E1,3.534598351E0,5.898929596E0,-1.175591350E0
1.378467594E1,4.939860821E0,5.070114613E0,-8.078610897E-1
1.380067594E1,5.286339760E0,3.921319246E0,-2.544174492E-1
1.381667594E1,5.369552612E0,3.138597488E0,-4.162463248E-1
1.383267594E1,5.913352489E0,2.878500700E0,4.479072690E-1
1.384867594E1,8.994326591E0,1.806166649E0,-3.103843145E-2
1.386467594E1,1.173661613E1,-3.942867279E0,4.890587807E0
1.388067594E1,1.224790192E1,-8.962827682E0,7.686469555E0
1.389667594E1,1.087299919E1,-9.133275986E0,5.236454010E0
1.391267594E1,1.214642715E1,-1.027698612E1,5.735942364E0
1.392867594E1,1.319064331E1,-9.829136848E0,1.336836100E0
1.394467594E1,1.273192406E1,-8.087278366E0,1.430315256E0
1.396067594E1,1.369096470E1,-5.013822079E0,1.392659247E-1
1.397667594E1,1.522273636E1,-1.258919239E0,6.792637110E-1
1.399267594E1,1.677090454E1,1.198882103E0,1.238472685E-1
1.400867594E1,1.719695663E1,2.681266546E0,-9.732334018E-1
1.402467594E1,1.452781487E1,3.921501160E0,-1.131336927E0
1.404067594E1,1.066937733E1,4.970630646E0,-1.198776722E0
1.405667594E1,7.180421352E0,5.439558983E0,-1.837568998E0
1.407267594E1,4.875456333E0,5.452258110E0,-2.526467085E0
1.408867594E1,3.632483006E0,5.540948868E0,-2.251219988E0
1.410467594E1,3.284059286E0,4.814308643E0,-1.897098422E0
1.412067594E1,2.887464523E0,3.246863127E0,-1.376053095E0
1.413667594E1,2.769966841E0,1.750736117E0,-5.634418130E-1
1.415267594E1,2.931604147E0,4.724238813E-1,1.194036230E-1
1.416867594E1,2.780376911E0,-6.930735111E-1,6.862164736E-1
1.418467594E1,2.402801752E0,-1.310030460E0,6.770514846E-1
1.420067594E1,2.278245687E0,-1.280955315E0,4.556357563E-1
1.421667594E1,2.258833408E0,-1.246995926E0,2.072899789E-1
1.423267594E1,2.576764345E0,-1.261849642E0,-2.502898276E-1
1.424867594E1,3.019251108E0,-1.501375079E0,-9.188179970E-1
1.426467594E1,2.778451920E0,-1.860974789E0,-1.480114579E0
1.428067594E1,1.106073260E0,-9.384504557E-1,-1.111618280E0
1.429667594E1,-4.893365204E-1,3.295972824E0,9.429802895E-1
1.431267594E1,-1.517090678E0,1.213137245E1,5.087390900E0
1.432867594E1,-7.902972698E-1,2.404971695E1,9.744065285E0
1.434467594E1,1.110478640E0,2.569580841E1,1.361287498E1
1.436067594E1,-1.973664880E0,2.392578506E1,1.296098232E1
1.437667594E1,-6.571240902E0,2.605709457E1,8.294433594E0
1.439267594E1,-7.589571476E0,2.814647484E1,7.220251560E0
1.440867594E1,-5.497766972E0,2.924977875E1,8.591074944E0
1.442467594E1,-4.473680496E0,2.766847610E1,9.491754532E0
1.444067594E1,-3.748563290E0,2.508694267E1,8.188773155E0
1.445667594E1,-6.952762008E-1,2.257284927E1,6.617037296E0
1.447267594E1,3.222873211E0,1.969698334E1,5.859482765E0
1.448867594E1,6.384885788E0,1.650975418E1,5.750144482E0
1.450467594E1,6.890876293E0,1.255921555E1,5.086280346E0
1.452067594E1,6.144335270E0,8.786251068E0,4.049782753E0
1.453667594E1,4.476055622E0,5.070392609E0,2.858801365E0
1.455267594E1,3.033855677E0,1.484491229E0,1.824659467E0
1.456867594E1,1.869383097E0,-6.285449862E-1,6.400371790E-1
1.458467594E1,1.225764275E0,-2.022947311E0,-1.184363738E-1
1.460067594E1,7.782592177E-1,-2.377346516E0,-7.859494090E-1
1.461667594E1,9.375885725E-1,-1.517454624E0,-1.233301163E0
1.463267594E1,1.442947030E0,1.356363147E-1,-1.215727806E0
1.464867594E1,1.799960852E0,1.742461681E0,-1.573603392E0
1.466467594E1,2.972707748E0,2.946189642E0,-1.799233079E0
1.468067594E1,4.237123966E0,4.560580730E0,-2.036383390E0
1.469667594E1,5.489148140E0,6.416891575E0,-1.283253789E0
1.471267594E1,6.577025414E0,7.538488865E0,3.379559219E-1
1.472867594E1,5.224444866E0,7.283103943E0,1.648647308E0
1.474467594E1,3.881422281E0,5.266324043E0,2.387584209E0
1.476067594E1,4.205769539E0,3.273496389E0,1.258038044E0
1.477667594E1,6.518578053E0,2.300578833E0,-5.983493328E-1
1.479267594E1,8.668398857E0,1.477164984E0,-2.279040575E0
1.480867594E1,1.006654549E1,6.025726721E-2,-1.229345918E0
1.482467594E1,1.194623375E1,-1.335533619E0,-8.667010814E-2
1.484067594E1,1.425518227E1,-3.424656391E0,-1.412090540E0
1.485667594E1,1.483638000E1,-6.351500988E0,1.323533773E0
1.487267594E1,1.278861904E1,-9.275596619E0,2.834897757E0
1.488867594E1,8.279896736E0,-1.204362965E1,9.383642673E-1
1.490467594E1,6.935896873E0,-1.215339851E1,1.088882923E0
1.492067594E1,9.523166656E0,-8.394722939E0,6.632896513E-2
1.493667594E1,1.146565056E1,-4.231348991E0,-2.621650994E-1
1.495267594E1,1.320745087E1,-2.290829659E0,-2.717802227E-1
1.496867594E1,1.373087120E1,-1.277028918E0,-1.350540400E0
1.498467594E1,1.316246891E1,2.852835059E-1,-2.097473860E0
1.500067594E1,1.195415306E1,2.259992361E0,-1.820589185E0
1.501667594E1,9.746009827E0,4.137324333E0,-1.646415949E0
1.503267594E1,7.291110516E0,5.430001259E0,-1.887195945E0
1.504867594E1,4.999284744E0,5.352448940E0,-2.250099659E0
1.506467594E1,3.096919060E0,4.576238632E0,-2.590957165E0
1.508067751E1,1.894062519E0,3.233015060E0,-2.303729534E0
1.509667751E1,9.588586688E-1,2.006800652E0,-1.861386418E0
1.511267751E1,8.140381575E-1,9.707625508E-1,-1.730078816E0
1.512867751E1,9.183678627E-1,5.173965693E-1,-1.488781571E0
1.514467594E1,9.401646852E-1,6.761129498E-1,-1.507552266E0
1.516067594E1,6.744465828E-1,9.857790470E-1,-1.394258499E0
1.517667594E1,5.168697834E-1,9.662614465E-1,-1.139955997E0
1.519267594E1,5.405820608E-1,9.816418290E-1,-1.406497717E0
1.520867594E1,4.505408704E-1,6.534829736E-1,-1.068963170E0
1.522467594E1,2.618969381E-1,3.842789531E-1,-5.352860093E-1
1.524067594E1,-6.250494123E-1,2.493225932E-1,5.270883441E-1
1.525667594E1,-1.828892350E0,1.849731445E0,1.835260987E0
1.527267594E1,-2.805017948E0,4.971444607E0,4.513577461E0
1.528867594E1,-1.996352434E0,1.185770512E1,8.587809563E0
1.530467594E1,4.320988178E0,2.395379639E1,1.165052986E1
1.532067594E1,1.244534779E1,2.540253639E1,1.245543194E1
1.533667594E1,1.009239388E1,2.048806381E1,1.468831253E1
1.535267594E1,4.985963345E0,2.629282570E1,8.270310402E0
1.536867594E1,-2.379175663E0,3.095796585E1,7.217206001E0
1.538467594E1,-5.398963451E0,3.268597794E1,8.496964455E0
1.540067594E1,-5.396013737E0,3.092625809E1,8.342011452E0
1.541667594E1,-5.517581463E0,2.631854820E1,7.423136234E0
1.543267594E1,-3.048086882E0,2.174847794E1,5.469161034E0
1.544867594E1,2.197963476E0,1.817433739E1,4.225286961E0
1.546467594E1,6.645643234E0,1.462457943E1,4.316448689E0
1.548067594E1,8.200657845E0,1.110314846E1,4.761866093E0
1.549667594E1,7.248541355E0,7.800136566E0,3.775014400E0
1.551267594E1,6.011342049E0,4.794398308E0,2.605427742E0
1.552867594E1,4.850049496E0,2.203814745E0,1.954588056E0
1.554467594E1,3.730367422E0,7.357573509E-1,1.107136369E0
1.556067594E1,2.931613684E0,-1.559678763E-1,6.491638422E-1
1.557667594E1,2.406373739E0,-9.324936569E-2,4.709394872E-1
1.559267594E1,2.104790449E0,1.082179189E0,7.624766231E-1
1.560867594E1,1.663242340E0,2.754634619E0,7.691420913E-1
1.562467594E1,1.597344398E0,4.403990269E0,6.808439493E-1
1.564067594E1,1.683229089E0,5.728913307E0,1.342668384E-2
1.565667594E1,1.861300349E0,6.496407509E0,-8.278096318E-1
1.567267594E1,2.487709761E0,6.707988262E0,-9.178220034E-1
1.568867594E1,2.797011614E0,6.602001667E0,-7.867059112E-1
1.570467594E1,2.611470699E0,6.537406445E0,-6.891948581E-1
1.572067594E1,2.520203829E0,6.555161476E0,-6.242258549E-1
1.573667594E1,2.781851768E0,6.009896278E0,-9.635224938E-1
1.575267594E1,3.347697258E0,4.686075211E0,-2.516593337E-1
1.576867594E1,4.156774998E0,3.705793142E0,-9.351847768E-1
1.578467594E1,6.851716995E0,8.060414791E-1,-1.856847107E-1
1.580067594E1,1.391101074E1,-6.040283680E0,2.898631334E0
1.581667594E1,1.908242035E1,-1.452511406E1,1.336510420E0
1.583268063E1,1.629893875E1,-1.689896393E1,3.513941050E0
1.584867594E1,1.026400948E1,-1.366832542E1,4.902328968E0
1.586467594E1,8.455104828E0,-1.216354084E1,5.091001987E0
1.588067594E1,1.003929043E1,-1.075010967E1,2.419015169E0
1.589667594E1,1.005735111E1,-7.415369511E0,8.776377439E-1
1.591267594E1,1.041773605E1,-4.803630352E0,1.382651448E0
1.592867594E1,1.197810459E1,-3.421295166E0,4.456950128E-1
1.594467594E1,1.219562340E1,-1.380324364E0,-5.651082397E-1
1.596067594E1,1.059544468E1,1.267174363E0,-3.891535401E-1
1.597667594E1,8.135478020E0,4.013745308E0,4.256124496E-1
1.599267594E1,4.708542347E0,7.320214272E0,8.550843596E-1
1.600867751E1,2.077602148E0,9.375569344E0,-3.397851065E-2
1.602467594E1,1.183923244E0,8.730887413E0,-1.213314295E0
1.604067594E1,1.797566652E0,5.994477749E0,-1.548588872E0
1.605667594E1,1.825128675E0,3.750813961E0,-6.966169477E-1
1.607267594E1,1.594002128E0,2.623796225E0,-9.165961295E-2
1.608867594E1,1.401029468E0,1.959682822E0,-3.950433061E-2
1.610467594E1,1.124317169E0,1.465376019E0,2.304562777E-1
1.612067594E1,6.914646029E-1,1.217987895E0,4.828817546E-1
1.613667594E1,3.888087869E-1,1.402485132E0,5.798277855E-1
1.615267594E1,5.638632178E-1,1.562743306E0,6.027833819E-1
1.616867594E1,6.209793091E-1,1.841945529E0,7.876253128E-1
1.618467594E1,7.609155774E-1,1.716537237E0,1.446854353E0
1.620067594E1,9.924827814E-1,1.426465273E0,1.408853650E0
1.621667594E1,1.100375175E0,1.459582090E0,1.608338475E0
1.623267594E1,2.174385309E0,3.503061771E0,3.626104832E0
1.624867594E1,4.448608875E0,1.318733025E1,7.555544853E0
1.626467594E1,1.211940098E1,2.783483505E1,8.831233025E0
1.628067594E1,1.566802883E1,2.410958290E1,1.043814468E1
1.629667594E1,1.019117737E1,2.252922630E1,8.158136368E0
1.631267594E1,3.846907616E-1,2.800357819E1,4.852970123E0
1.632867594E1,-7.730120659E0,3.344764709E1,5.980246544E0
1.634467594E1,-8.847599983E0,3.435584641E1,7.357410431E0
1.636067594E1,-8.452662468E0,3.020298767E1,8.837065697E0
1.637667594E1,-5.483832836E0,2.366074562E1,7.580924034E0
1.639267594E1,3.082774207E-2,1.923794746E1,5.239825249E0
1.640867594E1,5.400351524E0,1.562906170E1,4.379521370E0
1.642467594E1,8.197525978E0,1.199785233E1,5.201154232E0
1.644067594E1,8.062282562E0,8.712442398E0,5.717976093E0
1.645667594E1,6.686210632E0,5.992753983E0,4.819796562E0
1.647267594E1,4.902932644E0,3.800105810E0,3.236213684E0
1.648867594E1,3.486704588E0,1.879524946E0,1.988758087E0
1.650467594E1,2.445159912E0,6.563464403E-1,1.241441369E0
1.652067594E1,1.681706429E0,8.495585620E-2,3.348913491E-1
1.653667594E1,1.628890395E0,3.402447701E-1,-1.195568517E-1
1.655267594E1,1.833652139E0,1.666335702E0,-7.242652178E-1
1.656867594E1,2.046352863E0,3.535278320E0,-8.854811192E-1
1.658467594E1,2.602382421E0,5.039181709E0,-7.530913949E-1
1.660067594E1,2.702450514E0,5.748190880E0,-1.188520074E0
1.661667594E1,3.137160778E0,5.708782196E0,-1.075140238E0
1.663267594E1,3.513136625E0,5.892475128E0,-6.512037516E-1
1.664867594E1,3.795508862E0,6.816483974E0,-5.526009202E-1
1.666467594E1,4.327433586E0,8.197641373E0,-3.705745339E-1
1.668067594E1,3.794445753E0,9.003921509E0,-5.543918014E-1
1.669667594E1,3.722188711E0,8.353139877E0,-1.468861938E0
1.671267594E1,3.973034143E0,7.455246925E0,-1.982360721E0
1.672867594E1,4.974691391E0,4.224549770E0,1.953659058E0
1.674467594E1,7.259679317E0,-2.135589600E0,4.491177559E0
1.676067594E1,1.042375088E1,-1.050049019E1,4.760151863E0
1.677667594E1,1.343368340E1,-1.861140442E1,4.822238445E0
1.679267594E1,1.253674889E1,-1.604454231E1,5.020755768E0
1.680873532E1,9.004258156E0,-1.124879265E1,8.063144684E0
1.682467594E1,7.586133480E0,-1.079163456E1,4.419016838E0
1.684067594E1,8.873448372E0,-9.088734627E0,1.925359488E0
1.685667594E1,9.041253090E0,-6.118047237E0,1.439556837E0
1.687267594E1,1.011993694E1,-4.076569080E0,8.274264932E-1
1.688867594E1,1.116528320E1,-2.237975359E0,-1.174145222E0
1.690467594E1,1.183438587E1,-6.789956242E-2,-2.509046793E0
1.692067594E1,1.086604595E1,2.632769585E0,-2.105968475E0
1.693667594E1,8.490633965E0,5.519171238E0,-1.193500042E0
1.695267594E1,5.933281898E0,8.695002556E0,-6.736229658E-1
1.696867594E1,4.242601871E0,1.010474682E1,-1.509295225E0
1.698467594E1,3.684293509E0,8.813611984E0,-2.191872597E0
1.700067594E1,3.352974176E0,5.809836864E0,-2.577664614E0
1.701667594E1,3.628087044E0,3.153527498E0,-2.115219831E0
1.703267594E1,3.694454432E0,1.077859998E0,-1.500905871E0
1.704867594E1,3.519687176E0,6.026684493E-2,-1.312127948E0
1.706467594E1,3.340983868E0,-6.212187409E-1,-8.896470070E-1
1.708067594E1,2.319071531E0,-1.522357941E0,2.005862147E-1
1.709667594E1,4.087285399E-1,-1.933097601E0,6.912443042E-1
1.711267594E1,-9.997037649E-1,-6.344538331E-1,3.228724599E-1
1.712867594E1,-2.191048861E0,2.247667074E0,-1.011214972E0
1.714467594E1,-1.389192343E0,4.089239120E0,-1.214042187E0
1.716067594E1,-4.957625568E-1,3.576506376E0,9.496457577E-1
1.717667594E1,1.621449143E-1,5.095962524E0,5.778367519E0
1.719267594E1,4.895165443E0,1.748633957E1,1.313519478E1
1.720867594E1,1.178654003E1,2.956360435E1,1.406634712E1
1.722467594E1,8.330720901E0,2.268877792E1,1.374005604E1
1.724067594E1,6.810076714E0,2.394679451E1,5.115403175E0
1.725667594E1,1.323457241E0,2.555737495E1,4.560705185E0
1.727267594E1,-3.277882338E0,2.935277939E1,9.572161674E0
1.728867594E1,-3.144285917E0,3.009038544E1,1.061065102E1
1.730467594E1,-3.094850302E0,2.712632370E1,1.011975384E1
1.732067594E1,-2.694453955E0,2.316899681E1,8.962349892E0
1.733667594E1,-3.616968393E-1,1.900592041E1,6.929039955E0
1.735267594E1,2.959807873E0,1.582255077E1,5.441551208E0
1.736867594E1,5.667985439E0,1.269706440E1,4.852156162E0
1.738467594E1,6.935628891E0,9.990965843E0,4.079470634E0
1.740067594E1,6.932018757E0,7.321210384E0,3.311056376E0
1.741667594E1,5.732216835E0,4.601473808E0,2.883997917E0
1.743267594E1,4.583986282E0,2.394996643E0,2.361199856E0
1.744867594E1,3.718080282E0,1.104148269E0,1.484060287E0
1.746467594E1,2.896667957E0,5.239375234E-1,6.388304234E-1
1.748067594E1,2.530929804E0,8.977298737E-1,8.862376958E-2
1.749667594E1,2.336147308E0,2.114817619E0,-1.437478699E-2
1.751267594E1,2.142590284E0,3.605638981E0,-4.084508121E-2
1.752867594E1,1.509764433E0,4.947196484E0,-1.787798256E-1
1.754467594E1,1.325142741E0,6.125977039E0,-2.404544652E-1
1.756067594E1,1.867161274E0,6.939191341E0,-1.341231912E-1
1.757667594E1,2.816404819E0,8.151998520E0,-1.466017663E-1
1.759267594E1,3.550993681E0,9.090266228E0,-5.044583082E-1
1.760867594E1,2.747528315E0,9.133295059E0,-7.910730243E-1
1.762467594E1,1.738286257E0,7.993731976E0,-8.579286337E-1
1.764071813E1,1.358977675E0,6.727074623E0,-1.581571341E0
1.765667594E1,2.459218740E0,5.234117508E0,-5.751639009E-1
1.767267594E1,4.701340675E0,3.333016038E-1,4.495353222E0
1.768867594E1,8.146779060E0,-7.502690792E0,6.323259354E0
1.770467594E1,1.054417992E1,-1.450967693E1,2.188836575E0
1.772067594E1,1.344459152E1,-2.002073669E1,7.365148544E0
1.773667594E1,1.746635437E1,-1.713770485E1,4.979029655E0
1.775267594E1,1.383684826E1,-9.863814354E0,4.887906075E0
1.776867594E1,9.635675430E0,-7.950109482E0,5.759357452E0
1.778467594E1,9.394014359E0,-6.824652672E0,4.177460670E0
1.780067594E1,9.606638908E0,-5.261114597E0,2.899081230E0
1.781667594E1,1.049557686E1,-3.941679716E0,1.711547732E0
1.783267594E1,1.186543369E1,-3.208862305E0,1.594729871E-1
1.784867594E1,1.177127457E1,-1.317280173E0,-1.286356688E0
1.786467594E1,9.619154930E0,1.853150368E0,-1.153392315E0
1.788067594E1,5.651542187E0,5.239365578E0,-4.965478480E-1
1.789667594E1,1.880195260E0,8.396427155E0,-2.265489399E-1
1.791267594E1,-4.783710539E-1,9.952054977E0,-3.680845499E-1
1.792867594E1,-2.810218334E-1,8.488738060E0,-1.538418174E0
1.794467594E1,1.341595650E0,5.442719936E0,-2.091143608E0
1.796067594E1,1.887856841E0,3.462484837E0,-1.448501587E0
1.797667594E1,1.824879646E0,3.273266315E0,-5.140734315E-1
1.799267594E1,1.691541791E0,3.253691435E0,1.227076277E-1
1.800867751E1,1.486875892E0,2.790758133E0,4.148576856E-1
1.802467594E1,1.123359442E0,2.326876640E0,4.865784049E-1
1.804067594E1,8.644600511E-1,2.113821507E0,6.082134247E-1
1.805667594E1,4.188608229E-1,1.910898566E0,1.013245344E0
1.807267594E1,5.382165685E-2,1.591914296E0,1.796685576E0
1.808867594E1,7.892054915E-1,5.079442263E-1,2.726947784E0
1.810467594E1,6.655306220E-1,-8.867452741E-1,2.700237989E0
1.812067594E1,4.308394432E0,2.936000109E0,3.999590635E0
1.813667594E1,7.492922306E0,1.773778725E1,6.696179867E0
1.815267594E1,1.293952084E1,2.722327995E1,9.387702942E0
1.816867594E1,1.230475998E1,2.081498909E1,8.396265030E0
1.818467594E1,5.268277645E0,2.340499878E1,5.886652470E0
1.820067594E1,-5.061878681E0,2.598766899E1,7.967864513E0
1.821667594E1,-8.502537727E0,2.951793098E1,8.138045311E0
1.823267594E1,-7.581565380E0,3.079333115E1,7.245869637E0
1.824867594E1,-5.467628956E0,2.798597717E1,8.968516350E0
1.826467594E1,-8.618743420E-1,2.325755310E1,9.684420586E0
1.828067594E1,3.277240753E0,2.026877594E1,8.422361374E0
1.829667594E1,5.220345974E0,1.769132996E1,7.325366497E0
1.831267594E1,5.881643772E0,1.488750076E1,6.723176956E0
1.832867594E1,6.137421131E0,1.164586639E1,5.612391949E0
1.834467594E1,6.266286850E0,8.159372330E0,3.456834793E0
1.836067594E1,5.364773750E0,4.691486359E0,2.597728014E0
1.837667594E1,4.095885277E0,1.720406294E0,1.732846498E0
1.839267594E1,3.498867273E0,-1.185704395E-1,8.112416863E-1
1.840867594E1,3.042589903E0,-1.071970344E0,1.581896991E-1
1.842467594E1,2.685355663E0,-1.262529492E0,-3.751809597E-1
1.844067594E1,2.926959515E0,-5.482243299E-1,-6.503514051E-1
1.845667594E1,3.393062830E0,1.217987895E0,-8.012722731E-1
1.847267594E1,3.909137726E0,3.694693804E0,-1.186863303E0
1.848867594E1,4.225507259E0,6.052992344E0,-1.639626026E0
1.850467594E1,4.078043938E0,8.065395355E0,-1.628200769E0
1.852067594E1,4.684284210E0,9.146837234E0,-1.100796461E0
1.853667594E1,6.040657043E0,1.013288403E1,-5.623404980E-1
1.855267594E1,6.401760101E0,1.088803387E1,-1.545696557E-1
1.856867594E1,4.631841660E0,1.080508995E1,-1.256352544E0
1.858467594E1,2.797011614E0,8.860288620E0,-2.273055077E0
1.860067594E1,1.250730991E0,5.880523205E0,-3.855622411E-1
1.861667594E1,8.989844322E-1,1.009041071E0,2.097521782E0
1.863267594E1,2.599528313E0,-5.054619789E0,4.438879013E0
1.864867594E1,8.029903412E0,-1.346678162E1,7.988301754E0
1.866467594E1,1.134376526E1,-1.709370804E1,2.187400103E0
1.868067594E1,1.049869919E1,-1.548947906E1,2.940328598E0
1.869667594E1,8.410849571E0,-1.179497719E1,6.199938297E0
1.871267594E1,7.136808395E0,-1.225654125E1,3.601635933E0
1.872867594E1,8.828561783E0,-1.188711548E1,1.673661828E0
1.874467594E1,9.956000328E0,-8.375856400E0,1.686351180E0
1.876067594E1,1.045486641E1,-5.626843452E0,1.798466802E0
1.877667594E1,1.145952988E1,-3.372271538E0,7.007732391E-1
1.879267594E1,1.186978149E1,-1.414676309E0,-8.998846412E-1
1.880867594E1,1.234365177E1,4.747223258E-1,-1.501308084E0
1.882467594E1,1.199322701E1,2.603100538E0,-1.318994522E0
1.884067594E1,1.050152397E1,5.498044968E0,-1.122641206E0
1.885667594E1,8.666493416E0,7.921886921E0,-1.203344941E0
1.887267594E1,6.476258278E0,8.191885948E0,-1.906598687E0
1.888867594E1,4.049610138E0,6.307093143E0,-2.725013494E0
1.890467594E1,2.295723438E0,3.552191019E0,-3.097062826E0
1.892067594E1,1.353997707E0,1.016070485E0,-3.005891562E0
1.893667594E1,7.375673652E-1,-6.190543771E-1,-2.474847794E0
1.895267594E1,2.418718189E-1,-1.532911658E0,-1.910103679E0
1.896867594E1,-1.693179458E-1,-1.653435707E0,-1.614477277E0
1.898467594E1,-9.175443053E-1,-1.152367592E0,-1.052510262E0
1.900067594E1,-1.806827426E0,-2.236471772E-1,-3.050213158E-1
1.901667594E1,-2.763502359E0,1.448664427E0,-1.088135958E0
1.903267594E1,-2.681725979E0,2.933615208E0,-1.404237509E0
1.904867594E1,-2.031039476E0,3.759614944E0,-1.318343282E0
1.906467594E1,-1.641838193E0,3.653848648E0,7.575158477E-1
1.908067594E1,-1.908944964E0,5.159791946E0,4.578968048E0
1.909667594E1,-1.838114858E0,1.176194763E1,8.917864799E0
1.911267594E1,6.372684956E0,2.876377678E1,1.397629547E1
1.912867594E1,1.648936462E1,2.821404839E1,1.613388443E1
1.914467594E1,1.427615547E1,2.443097115E1,1.349691868E1
1.916067594E1,4.295293331E0,2.893067169E1,4.782092094E0
1.917667594E1,-7.203214169E0,3.328965378E1,8.507124901E0
1.919267594E1,-7.648708344E0,3.202590561E1,8.024349213E0
1.920867594E1,-6.606818676E0,2.753878784E1,7.828934193E0
1.922467594E1,-4.659106731E0,2.204006195E1,7.372714520E0
1.924067594E1,-9.470312595E-1,1.752426338E1,5.614250183E0
1.925667594E1,3.822649479E0,1.412316608E1,3.434999466E0
1.927267594E1,6.944927692E0,1.151608086E1,2.796073198E0
1.928867594E1,7.938971519E0,8.657155037E0,2.862057447E0
1.930467594E1,6.900347710E0,6.109208107E0,2.445016384E0
1.932067594E1,5.798402309E0,3.569601536E0,1.508452415E0
1.933667594E1,5.057617188E0,1.390973806E0,9.235872030E-1
1.935267594E1,4.325403214E0,9.065405279E-2,4.582310617E-1
1.936867594E1,3.831393003E0,-5.058661103E-1,-2.769612521E-2
1.938467594E1,3.652613163E0,-3.219530880E-1,-4.719258845E-1
1.940067594E1,3.556691885E0,1.002251148E0,-1.031335950E0
1.941667594E1,3.981902122E0,2.800899982E0,-1.551203251E0
1.943267594E1,4.538429737E0,4.662573814E0,-1.699911952E0
1.944867594E1,3.866980553E0,5.999984264E0,-1.882953525E0
1.946467594E1,3.273074865E0,6.559691429E0,-1.853236556E0
1.948067594E1,3.488983870E0,6.840195656E0,-1.779207945E0
1.949667594E1,4.029019833E0,7.893338203E0,-7.559069395E-1
1.951267594E1,3.861339808E0,8.992084503E0,-5.677418113E-1
1.952867594E1,4.459210396E0,1.031733322E1,-7.770429850E-1
1.954467594E1,5.057856560E0,9.885735512E0,1.329260767E-1
1.956067594E1,5.384856224E0,5.705487728E0,1.894847870E0
1.957667594E1,6.675063133E0,-2.493800595E-2,3.179729700E0
1.959267594E1,9.660497665E0,-6.909120083E0,4.010661602E0
1.960867594E1,1.264210320E1,-1.359098244E1,8.464786530E0
1.962467594E1,1.289766026E1,-1.664934540E1,9.456914902E0
1.964067594E1,1.195460320E1,-1.450441933E1,7.621356964E0
1.965667594E1,1.021481323E1,-1.087443542E1,4.384396076E0
1.967267594E1,9.890226364E0,-9.851728439E0,2.897903204E0
1.968867594E1,9.800185204E0,-7.199565411E0,1.821795940E0
1.970467594E1,1.047097397E1,-4.814385414E0,1.522798419E0
1.972067594E1,1.175535870E1,-3.194573641E0,-1.317768544E-1
1.973667594E1,1.201195908E1,-1.588140965E0,-1.299333215E0
1.975267594E1,1.042619324E1,4.514315128E-1,-1.312204480E0
1.976867594E1,7.178056240E0,3.209532738E0,-1.083912611E0
1.978467594E1,3.996085405E0,6.281973839E0,-8.866399527E-1
1.980067594E1,1.925311685E0,8.913661003E0,-6.517591476E-1
1.981667594E1,1.375028372E0,9.140162468E0,-8.887084723E-1
1.983267594E1,1.675040960E0,6.784583569E0,-1.222584724E0
1.984867594E1,1.642230868E0,4.390075207E0,-6.496235132E-1
1.986467594E1,1.483897448E0,2.568011284E0,1.251401305E-1
1.988067594E1,1.290733218E0,1.327795506E0,3.729974627E-1
1.989667594E1,8.295238614E-1,6.735463738E-1,4.793862402E-1
1.991267594E1,6.436763406E-1,2.905411720E-1,8.712883592E-1
1.992867594E1,9.484390616E-1,1.925321221E-1,1.241039157E0
1.994467594E1,1.203814268E0,9.819674492E-1,6.203184724E-1
1.996067594E1,1.744989991E0,2.161102295E0,5.151747465E-1
1.997667594E1,3.047406912E0,2.332996368E0,9.209727645E-1
1.999267594E1,4.582769871E0,1.488302827E0,1.032293558E0
2.000868844E1,4.731861591E0,4.719163179E-1,2.189813375E0
2.002467594E1,4.218947411E0,2.557486296E0,4.437758446E0
2.004067594E1,2.782675266E0,1.320525742E1,5.646763325E0
2.005667594E1,3.581888437E0,2.607851601E1,6.743690491E0
2.007267594E1,6.628290176E0,2.352996445E1,9.767547607E0
2.008867594E1,3.704423904E0,2.221640015E1,1.079065704E1
2.010467594E1,-8.913038373E-1,2.708613014E1,9.128831863E0
2.012067594E1,-5.580644608E0,3.163075638E1,6.944487095E0
2.013667594E1,-9.709675789E0,3.154537964E1,8.094575882E0
2.015267594E1,-1.107996273E1,2.882730865E1,9.201616287E0
2.016867594E1,-8.865823746E0,2.475277901E1,8.714502335E0
2.018467594E1,-4.511614799E0,2.133485603E1,7.413588047E0
2.020067594E1,2.007777542E-1,1.819253349E1,6.438994408E0
2.021667594E1,4.251259327E0,1.450544357E1,5.867920399E0
2.023267594E1,6.260444641E0,1.089405823E1,5.186195374E0
2.024867594E1,6.598601818E0,7.664280415E0,4.060929775E0
2.026467594E1,6.077517986E0,5.058105469E0,2.793104410E0
2.028067594E1,4.860344410E0,2.795144320E0,2.123024940E0
2.029667594E1,3.559277534E0,7.882573605E-1,2.004530907E0
2.031267594E1,1.821910858E0,-8.233085275E-1,1.744415402E0
2.032867594E1,7.390804887E-1,-1.643705726E0,1.311993718E0
2.034467594E1,6.086539030E-1,-1.227966905E0,1.053764820E0
2.036067594E1,1.008868694E0,2.564381361E-1,8.158769011E-1
2.037667594E1,1.458595634E0,2.228206873E0,9.654378891E-1
2.039267594E1,1.409418702E0,4.322875023E0,6.770898700E-1
2.040867594E1,1.770406842E0,5.588076115E0,-9.609368443E-2
2.042467594E1,2.857843637E0,5.289710999E0,-3.050021231E-1
2.044067594E1,3.392660379E0,4.800250053E0,-6.701083183E-1
2.045667594E1,3.761156797E0,5.039191246E0,-7.145925760E-1
2.047267594E1,3.752403498E0,5.872181892E0,-1.301679611E0
2.048867594E1,4.083512306E0,6.145398617E0,-7.517314553E-1
2.050467594E1,5.035226345E0,5.255578995E0,-1.736179292E-1
2.052067594E1,7.229196072E0,3.523977518E0,7.836222053E-1
2.053667594E1,8.417160988E0,1.503798127E0,1.470030308E0
2.055267594E1,1.216446972E1,-3.621134281E0,4.637051582E0
2.056867594E1,1.583822823E1,-7.659194946E0,-5.745317936E-1
2.058467594E1,1.238465023E1,-1.289132023E1,4.600774288E0
2.060067594E1,5.067701340E0,-1.246240425E1,6.861963749E0
2.061667594E1,3.469926119E0,-1.068367481E1,5.198970795E0
2.063267594E1,8.294788361E0,-7.439158440E0,4.060020447E0
2.064867594E1,1.226907730E1,-3.688095331E0,3.063955545E0
2.066467594E1,1.496905708E1,-8.417151570E-1,1.561967611E0
2.068067594E1,1.593995285E1,1.331932783E0,5.143703148E-2
2.069667594E1,1.672452354E1,2.975983143E0,-1.055498123E0
2.071267594E1,1.609761620E1,5.026483059E0,-1.996544003E0
2.072867594E1,1.391258240E1,6.844629765E0,-1.329289556E0
2.074467594E1,9.437244415E0,7.502805710E0,-5.912911892E-1
2.076067594E1,5.704108715E0,6.677169800E0,-6.428910494E-1
2.077667594E1,3.715982914E0,5.465703964E0,-1.098823667E0
2.079267594E1,3.003439903E0,3.594070196E0,-1.723001599E0
2.080867594E1,3.268430233E0,1.291442037E0,-1.912268043E0
2.082467594E1,3.229739666E0,-8.344846368E-1,-1.419675469E0
2.084067594E1,2.640900135E0,-2.215048313E0,-8.525656462E-1
2.085667594E1,1.654910564E0,-2.715493917E0,-2.466123551E-1
2.087267594E1,7.567209601E-1,-2.387871265E0,-2.013427913E-1
2.088867594E1,-2.220478356E-1,-1.219644666E0,-5.316755772E-1
2.090467594E1,-1.796992064E0,2.885683179E-1,-1.222814560E0
2.092067594E1,-3.079230785E0,1.516880035E0,-1.937962651E0
2.093667594E1,-3.242007494E0,1.362501860E0,-1.937359214E0
2.095267594E1,-2.666843653E0,7.571135759E-1,-1.692509055E0
2.096867594E1,-2.455445290E0,9.519633055E-1,3.954263628E-1
2.098467594E1,-2.598867655E0,4.871443748E0,5.332155228E0
2.100067594E1,-5.921722651E-1,1.839445114E1,1.190736103E1
2.101667594E1,8.220069885E0,3.190984344E1,1.270294476E1
2.103267594E1,1.124472237E1,2.450347710E1,1.559020805E1
2.104867594E1,4.739006519E0,2.911384773E1,1.013119793E1
2.106467594E1,-7.046250343E0,3.270168304E1,9.731319427E0
2.108067594E1,-1.055015564E1,3.184442329E1,1.021037006E1
2.109667594E1,-1.016515827E1,2.835986519E1,8.286609650E0
2.111267594E1,-9.671243668E0,2.379702377E1,7.570954323E0
2.112867594E1,-5.790884495E0,2.001449203E1,6.826970100E0
2.114467594E1,4.295868278E-1,1.671163368E1,5.857404709E0
2.116067594E1,5.360493183E0,1.352624321E1,5.969281197E0
2.117667594E1,6.430040359E0,1.007239723E1,5.927411079E0
2.119267594E1,5.565159321E0,7.075718403E0,5.149573803E0
2.120867594E1,4.356537342E0,4.381772041E0,3.007232189E0
2.122467594E1,3.280525684E0,1.735480189E0,1.938613892E0
2.124067594E1,2.379118204E0,-5.795404911E-1,1.352072716E0
2.125667594E1,1.688697457E0,-1.826574802E0,3.053469062E-1
2.127267594E1,1.500676036E0,-2.471812248E0,-7.255101204E-1
2.128867594E1,2.211706161E0,-1.861711979E0,-1.537661672E0
2.130467594E1,2.883011580E0,5.247132480E-2,-2.118035316E0
2.132067594E1,2.883586168E0,2.439576626E0,-2.499048471E0
2.133667594E1,3.160987854E0,3.931690931E0,-2.624121666E0
2.135267594E1,4.115412712E0,4.330996037E0,-2.087648153E0
2.136867594E1,5.293771267E0,4.073581219E0,-1.735087514E0
2.138467594E1,6.856428623E0,3.480259418E0,-1.159856677E0
2.140067594E1,8.353934288E0,4.373220444E0,-6.979959607E-1
2.141667594E1,8.955396652E0,6.738365650E0,-5.741774440E-1
2.143267594E1,9.609818459E0,8.493018150E0,2.315001488E-1
2.144867594E1,1.073705578E1,8.013929367E0,4.232565761E-1
2.146467594E1,1.264910316E1,7.587608337E0,-1.455521345E0
2.148067594E1,1.459061909E1,3.403826952E0,9.846298099E-1
2.149667594E1,1.487336540E1,-4.519237995E0,6.275403976E0
2.151267594E1,1.091622829E1,-1.272019196E1,3.665187597E0
2.152867594E1,6.121724606E0,-1.822334099E1,2.720253706E0
2.154467594E1,3.386770725E0,-1.697401047E1,2.419561148E0
2.156067594E1,5.538976192E0,-1.188173294E1,7.750893235E-1
2.157667594E1,9.476288795E0,-8.403005600E0,5.944323540E-1
2.159267594E1,1.068529320E1,-5.521249294E0,1.627530336E0
2.160867594E1,1.159901619E1,-3.393244743E0,1.631600618E0
2.162467594E1,1.212352848E1,-1.453108072E0,1.732540131E-1
2.164067594E1,1.158097363E1,4.403032959E-1,-4.414716363E-1
2.165667594E1,9.149709702E0,2.468019724E0,-4.525232911E-1
2.167267594E1,6.075392246E0,3.919901848E0,-9.334321618E-1
2.168867594E1,3.246039629E0,4.661424160E0,-1.529195786E0
2.170467594E1,1.304705858E0,5.021617889E0,-2.089879513E0
2.172067594E1,5.658743978E-1,5.217013359E0,-2.485133648E0
2.173667594E1,1.063887477E0,4.449144840E0,-3.095262289E0
2.175267594E1,2.238741398E0,3.000116587E0,-3.367310524E0
2.176867594E1,2.681056023E0,1.783546090E0,-2.827092648E0
2.178467594E1,2.092685461E0,9.166440368E-1,-1.787769556E0
2.180067594E1,8.943971395E-1,-1.092043296E-1,-3.620224595E-1
2.181667594E1,1.203325838E-1,-1.054502249E0,3.818560243E-1
2.183267594E1,-2.540343702E-1,-1.498013616E0,9.982767105E-1
2.184867594E1,-4.731134176E-1,-1.266322017E0,1.617101312E0
2.186467594E1,-1.013925314E0,-1.348127127E-1,2.066004753E0
2.188067594E1,-1.515117884E0,1.558060288E0,2.915304422E0
2.189667594E1,-2.139678955E0,3.072086334E0,4.758121490E0
2.191267594E1,-2.771958828E0,5.969051361E0,6.230364323E0
2.192867594E1,-2.468144178E0,1.366205311E1,7.773666382E0
2.194467594E1,3.713215351E0,2.472960281E1,8.370215416E0
2.196067594E1,1.371846962E1,2.703394699E1,1.031872177E1
2.197667594E1,1.509221363E1,2.383428764E1,1.081609344E1
2.199267594E1,1.064582729E1,2.919311333E1,6.373115540E0
2.200869313E1,7.775572300E0,3.227103424E1,3.907720327E0
2.202467594E1,9.604291916E-1,3.119790459E1,7.066304207E0
2.204067594E1,-3.370614529E0,3.089534378E1,8.235488892E0
2.205667594E1,-2.635929823E0,2.634440613E1,7.677438259E0
2.207267594E1,1.493062496E0,2.170495033E1,6.496187687E0
2.208867594E1,4.395160675E0,1.832132149E1,5.888472080E0
2.210467594E1,5.876951218E0,1.470228481E1,5.595440865E0
2.212067594E1,5.419467449E0,1.058827019E1,4.809625626E0
2.213667594E1,4.458492279E0,6.614662170E0,3.791342735E0
2.215267594E1,3.379779577E0,3.681410551E0,2.161542654E0
2.216867594E1,2.293310165E0,1.210249782E0,9.439570904E-1
2.218467594E1,1.079325318E0,-8.914857507E-1,2.665512562E-1
2.220067594E1,8.747359514E-1,-2.248557568E0,-8.667968214E-2
2.221667594E1,1.263228774E0,-2.504296541E0,-2.637548149E-1
2.223267594E1,2.157271385E0,-1.645640135E0,-3.690614104E-1
2.224867594E1,3.091987133E0,-4.410119727E-2,-5.794830322E-1
2.226467594E1,3.817410946E0,1.795948148E0,-8.486104012E-1
2.228067594E1,4.076089859E0,3.562428474E0,-1.267950058E0
2.229667594E1,4.071914673E0,4.852414608E0,-1.209445357E0
2.231267594E1,4.114224911E0,5.641093731E0,-1.314052820E0
2.232867594E1,4.998959064E0,6.225920200E0,-1.253431678E0
2.234467594E1,6.269676685E0,7.346799374E0,-6.809109449E-1
2.236067594E1,6.614259720E0,9.742446899E0,-2.205442786E-1
2.237667594E1,5.900845051E0,1.077307415E1,-1.971998572E0
2.239267594E1,6.832831383E0,9.409088135E0,-2.078511715E0
2.240867594E1,7.742407799E0,4.997034073E0,1.731333494E0
2.242467594E1,8.268183708E0,-2.095903397E0,5.121944427E0
2.244067594E1,1.041034412E1,-1.200356960E1,7.840713978E0
2.245667594E1,1.104449081E1,-1.530944538E1,2.704212427E0
2.247267594E1,8.699332237E0,-1.420513344E1,7.409671307E0
2.248867594E1,7.948539257E0,-1.178744984E1,6.341004848E0
2.250467594E1,8.266019821E0,-1.180656528E1,3.551846266E0
2.252067594E1,1.000740910E1,-9.892774582E0,2.962230921E0
2.253667594E1,1.059289646E1,-6.816330433E0,2.781803608E0
2.255267594E1,1.153571415E1,-4.051152229E0,2.396500349E0
2.256867594E1,1.225992203E1,-2.127554655E0,1.014490247E0
2.258467594E1,1.227033234E1,-3.800938725E-1,-1.307234168E-1
2.260067594E1,1.139596844E1,1.676803112E0,-4.849216044E-1
2.261667594E1,9.535444260E0,4.142715931E0,-3.557305038E-1
2.263267594E1,7.035342693E0,6.253856182E0,-5.712373853E-1
2.264867594E1,4.458405972E0,7.202390671E0,-9.669606090E-1
2.266467594E1,2.632472754E0,6.391943932E0,-1.669103384E0
2.268067594E1,1.914997458E0,4.346204281E0,-1.959203959E0
2.269667594E1,1.281960964E0,2.203431606E0,-1.983318329E0
2.271267594E1,6.294451952E-1,4.607305825E-1,-1.805668592E0
2.272867594E1,2.958275564E-2,-4.498417675E-1,-1.183223963E0
2.274467594E1,-6.434273720E-1,-4.864826500E-1,-7.233936787E-1
2.276067594E1,-1.038681269E0,6.200982258E-2,-3.636313379E-1
2.277667594E1,-1.253967881E0,6.179243326E-1,4.644751083E-3
2.279267594E1,-1.099197149E0,1.209493279E0,3.567360714E-2
2.280867594E1,-8.466471434E-1,1.868664742E0,-2.321609557E-1
2.282467594E1,-8.622765541E-1,2.490946531E0,-5.380536914E-1
2.284067594E1,-1.382230043E0,3.392919064E0,-7.759703398E-1
2.285667594E1,-1.625107527E0,5.489367962E0,-4.042370245E-2
2.287267594E1,-1.058208346E0,9.473004341E0,2.772140980E0
2.288867594E1,1.105996728E0,1.924236107E1,9.095313072E0
2.290469626E1,1.245861149E1,3.204897308E1,1.412671852E1
2.292067594E1,1.579500771E1,2.664090347E1,1.958084297E1
2.293667594E1,1.439982986E1,2.841915512E1,1.494588089E1
2.295267594E1,8.751524925E0,3.325581741E1,2.260404110E0
2.296867594E1,-1.439049363E0,3.308935165E1,6.818686485E0
2.298467594E1,-4.635279655E0,2.975882530E1,6.815755844E0
2.300067594E1,-5.850739479E0,2.523923492E1,5.972020149E0
2.301667594E1,-4.788776875E0,2.076818657E1,5.698803425E0
2.303267594E1,-1.451106429E0,1.605641747E1,5.283351898E0
2.304867594E1,2.978243113E0,1.261267376E1,4.071014404E0
2.306467594E1,6.425999165E0,9.703326225E0,2.557840586E0
2.308067594E1,7.887601376E0,6.774862766E0,2.106955051E0
2.309667594E1,7.268336773E0,3.995166063E0,2.055853128E0
2.311267594E1,5.699962616E0,1.274376154E0,1.818740964E0
2.312867594E1,4.565273285E0,-4.598399699E-1,1.547171354E0
2.314467594E1,3.569716215E0,-1.324051023E0,9.122578502E-1
2.316067594E1,3.158488274E0,-1.122717738E0,1.048468798E-1
2.317667594E1,3.442172527E0,5.101373792E-1,-8.670170307E-1
2.319267594E1,4.107817650E0,2.788814068E0,-9.063202739E-1
2.320867594E1,4.155261517E0,4.957884312E0,-9.462842941E-1
2.322467594E1,3.898976564E0,6.506817818E0,-1.175016761E0
2.324067594E1,4.096373558E0,7.317532539E0,-1.090309978E0
2.325667594E1,4.835770607E0,7.522572041E0,-9.513983130E-1
2.327267594E1,5.369169712E0,8.329332352E0,-7.440316677E-1
2.328867594E1,5.753841400E0,9.499530792E0,-3.655658662E-1
2.330467594E1,5.578470707E0,1.038475418E1,-4.164378643E-1
2.332067594E1,4.584972858E0,9.141282082E0,-1.631811261E0
2.333667594E1,6.078993320E0,5.519927502E0,-1.153344393E0
2.335267594E1,8.828426361E0,9.388144016E-1,-8.414182067E-2
2.336867594E1,1.159766579E1,-6.875716209E0,2.414284229E0
2.338467594E1,1.280437279E1,-1.617958450E1,1.873903275E0
2.340067594E1,1.506205654E1,-1.957765579E1,3.067374468E0
2.341667594E1,1.455587482E1,-1.785617638E1,6.488228798E0
2.343267594E1,8.777986526E0,-1.412834644E1,5.684773445E0
2.344867594E1,5.217827797E0,-1.016556072E1,5.239145279E0
2.346467594E1,5.253261566E0,-7.233879566E0,4.554806232E0
2.348067594E1,7.681728840E0,-5.023178577E0,3.339978456E0
2.349667594E1,1.005994701E1,-3.139660358E0,2.773232698E0
2.351267594E1,8.050359726E0,-1.340178400E-1,1.740555882E0
2.352867594E1,2.327020407E0,3.153259516E0,6.474304199E-1
2.354467594E1,-2.421418905E0,5.690739632E0,4.394796863E-2
2.356067594E1,-4.044342995E0,7.146835804E0,-6.184414625E-1
2.357667594E1,-2.043336153E0,7.627830982E0,-1.273121595E0
2.359267594E1,1.089438319E0,7.476910114E0,-1.407531977E0
2.360867594E1,2.981758118E0,7.538019657E0,-8.520771861E-1
2.362467594E1,4.210883617E0,7.546887875E0,1.015716121E-1
2.364067594E1,4.970612049E0,6.123084545E0,5.093616247E-1
2.365667594E1,4.640173435E0,4.064003944E0,5.609135702E-2
2.367267594E1,4.067585945E0,2.617504120E0,-3.489022255E-1
2.368867594E1,3.526141882E0,1.999206305E0,-9.602376819E-1
2.370467594E1,3.159771681E0,1.991583109E0,-1.716872454E0
2.372067594E1,2.667217255E0,2.013600111E0,-2.058151722E0
2.373667594E1,2.498081207E0,1.818281293E0,-1.696818590E0
2.375267594E1,2.486234903E0,1.559295654E0,-1.732157022E-1
2.376867594E1,2.013916254E0,1.603463888E0,1.647747040E0
2.378467594E1,9.500479698E-1,2.399047613E0,3.615818977E0
2.380067594E1,-1.261208057E0,5.612899303E0,4.686621189E0
2.381667594E1,2.207013369E0,1.903929520E1,8.567986488E0
2.383267594E1,1.326856995E1,3.391465378E1,9.015625000E0
2.384867594E1,1.617033386E1,2.125659370E1,1.371749210E1
2.386467594E1,9.138485909E0,2.329367638E1,1.033768463E1
2.388067594E1,-2.102233648E0,3.202015686E1,6.357659340E0
2.389667594E1,-5.218612671E0,3.323554230E1,7.230460644E0
2.391267594E1,-3.338101387E0,3.123039818E1,8.370646477E0
2.392867594E1,-6.737379432E-1,2.654947472E1,8.280729294E0
2.394467594E1,3.450532913E0,2.040844345E1,7.276371479E0
2.396067594E1,6.438429832E0,1.589147568E1,5.583757401E0
2.397667594E1,9.615774155E0,1.352798653E1,4.444423676E0
2.399267594E1,1.140336227E1,1.065854549E1,3.079479694E0
2.400871032E1,9.836184502E0,7.416212082E0,2.788095713E0
2.402467594E1,7.443324089E0,4.918581009E0,2.027295113E0
2.404067594E1,5.325738907E0,2.178455353E0,1.453615546E0
2.405667594E1,4.094151974E0,-2.734178305E-2,1.140616775E0
2.407267594E1,4.225316048E0,-9.947333336E-1,4.744541645E-1
2.408867594E1,4.725617886E0,-6.914167404E-1,-4.676833451E-1
2.410467594E1,5.132411957E0,1.242322564E0,-8.513589501E-1
2.412067594E1,4.714010715E0,4.000710964E0,-7.280958891E-1
2.413667594E1,3.903008461E0,6.494731903E0,-7.007636428E-1
2.415267594E1,3.078273058E0,8.312380791E0,-1.343913317E0
2.416867594E1,2.814087152E0,9.180259705E0,-1.207156539E0
2.418467594E1,2.497784376E0,9.768189430E0,-3.288771510E-1
2.420067594E1,2.675261736E0,1.058154774E1,8.012913913E-2
2.421667594E1,2.812554836E0,1.050895596E1,1.474732459E-1
2.423267594E1,1.995136142E0,1.005389500E1,-1.023645759E0
2.424867594E1,3.235332668E-1,7.853881836E0,-2.705065012E0
2.426467594E1,6.741305590E-1,4.957175255E0,-2.003056049E0
2.428067594E1,7.752616405E-1,-1.498320222E0,4.016244411E0
2.429667594E1,5.144306183E0,-1.118956947E1,8.121477127E0
2.431267594E1,1.201149940E1,-1.764635658E1,-4.625597503E-3
2.432867594E1,1.250604630E1,-1.851194954E1,-3.592260182E-2
2.434467594E1,8.607251167E0,-1.524986839E1,6.960844517E0
2.436067594E1,7.411328316E0,-1.136275673E1,4.819978237E0
2.437667594E1,9.146472931E0,-1.085573101E1,4.219416618E0
2.439267594E1,9.764128685E0,-8.711733818E0,3.374809265E0
2.440867594E1,9.969178200E0,-6.379666328E0,2.582836151E0
2.442467594E1,1.093726826E1,-3.706607342E0,9.472323656E-1
2.444067594E1,1.163758183E1,-1.041085124E0,6.512132287E-1
2.445667594E1,1.158600235E1,1.684866786E0,7.856811881E-1
2.447267594E1,9.760988235E0,4.695354939E0,1.054904461E0
2.448867594E1,5.979854107E0,8.170251846E0,9.091262817E-1
2.450467594E1,2.148020267E0,1.007850647E1,2.768654823E-1
2.452067594E1,8.916007355E-3,8.694418907E0,-1.144227266E0
2.453667594E1,2.227852643E-1,5.339452744E0,-2.067575216E0
2.455267594E1,8.534467220E-1,2.966157198E0,-1.831698418E0
2.456867594E1,1.239765525E0,1.855640411E0,-1.327757239E0
2.458467594E1,1.643236399E0,1.621803522E0,-9.019532204E-1
2.460067594E1,1.571036816E0,1.755428672E0,-6.287077665E-1
2.461667594E1,1.157376170E0,1.835644007E0,-2.367769778E-1
2.463267594E1,5.752596259E-1,2.034276724E0,4.925351590E-2
2.464867594E1,1.838268191E-1,2.270325661E0,2.426954359E-1
2.466467594E1,-1.925033927E-1,2.551864862E0,-9.685025364E-2
2.468067594E1,-2.919202149E-1,2.433533669E0,1.749203801E-1
2.469667594E1,-5.346731097E-2,2.594577074E0,7.790636420E-1
2.471267594E1,-1.791820489E-2,4.832379818E0,2.987561464E0
2.472867594E1,1.608951449E0,1.009352303E1,7.759311199E0
2.474467594E1,1.039086437E1,2.396659088E1,1.211704445E1
2.476067594E1,1.468349552E1,3.224819946E1,1.247418404E1
2.477667594E1,1.159986877E1,2.428379440E1,1.315620518E1
2.479267594E1,6.317944050E0,2.924780655E1,5.614690304E0
2.480867594E1,-4.841056824E0,3.232842636E1,6.985619545E0
2.482467594E1,-8.162369728E0,3.098983765E1,7.598104477E0
2.484067594E1,-4.343809605E0,2.606091499E1,5.524371624E0
2.485667594E1,-2.182295561E0,2.180228043E1,5.606616974E0
2.487267594E1,-1.959510446E-1,1.903893089E1,5.837312698E0
2.488867594E1,2.226358652E0,1.596762943E1,5.779066563E0
2.490467594E1,4.428114414E0,1.246769047E1,5.087017536E0
2.492067594E1,5.747185707E0,8.893482208E0,3.800335407E0
2.493667594E1,6.146902561E0,5.838480949E0,2.624207735E0
2.495267594E1,5.215337276E0,2.652296543E0,1.777503133E0
2.496867594E1,3.661548376E0,-1.090032086E-1,1.549230456E0
2.498467594E1,2.282833099E0,-1.677291512E0,1.309120774E0
2.500067594E1,1.662188888E0,-1.974153280E0,5.514229536E-1
2.501667594E1,2.335946083E0,-6.615657806E-1,-9.259814620E-1
2.503267594E1,4.201977253E0,1.664180875E0,-2.137763500E0
2.504867594E1,6.590633869E0,4.280794621E0,-2.644989491E0
2.506467594E1,8.500450134E0,6.085256577E0,-2.759432316E0
2.508067594E1,9.045399666E0,6.793633461E0,-2.289642096E0
2.509667594E1,8.686249733E0,7.530664444E0,-8.577850461E-1
2.511267594E1,7.691794395E0,8.461175919E0,-2.017833106E-2
2.512867594E1,7.049161911E0,9.822384834E0,-1.051533371E-1
2.514467594E1,6.919588089E0,1.149559689E1,-1.202080846E0
2.516067594E1,6.180018425E0,1.173649120E1,-1.885615826E0
2.517667594E1,4.856503963E0,9.650902748E0,-2.179135323E0
2.519267594E1,3.600065470E0,5.339155674E0,1.336357236E0
2.520867594E1,3.946908474E0,-9.807320833E-1,5.056372166E0
2.522467594E1,4.823646069E0,-1.166440678E1,8.383527756E0
2.524067594E1,7.184213638E0,-2.026678276E1,6.699694633E0
2.525667594E1,8.729077339E0,-1.792967796E1,3.046219587E0
2.527267594E1,6.002455235E0,-1.261261654E1,4.220987320E0
2.528867594E1,2.835002899E0,-1.364545631E1,2.912757158E0
2.530467594E1,5.381983280E0,-1.350839233E1,5.587683916E-1
2.532067594E1,6.978255272E0,-1.008918571E1,4.186692536E-1
2.533667594E1,8.265032768E0,-6.957301140E0,-3.538343012E-1
2.535267594E1,9.987374306E0,-3.994170189E0,-1.645908356E0
2.536867594E1,1.066230965E1,-1.197378516E0,-1.716786265E0
2.538467594E1,1.003803539E1,1.217480302E0,-1.077505708E0
2.540067594E1,7.864645958E0,4.088357925E0,-1.082638741E0
2.541667594E1,4.962921619E0,6.843183994E0,-1.267844677E0
2.543267594E1,2.558175802E0,8.825247765E0,-7.769472003E-1
2.544867594E1,1.812908649E0,9.001422882E0,-1.897931546E-1
2.546467594E1,2.267040730E0,6.620800972E0,-1.226865649E0
2.548067594E1,2.548598766E0,3.953497410E0,-1.884820938E0
2.549667594E1,2.399411440E0,2.206745386E0,-1.196382523E0
2.551267594E1,1.802230597E0,1.353758335E0,-1.112987757E0
2.552867594E1,6.305752397E-1,-2.573192120E-1,-1.540688038E0
2.554467594E1,-1.051945210E0,-1.505493164E0,-1.824305058E0
2.556067594E1,-1.815887094E0,-2.127755880E0,-5.127038956E-1
2.557667594E1,-1.833221078E0,-2.185771942E0,3.439127207E-1
2.559267594E1,-2.849770486E-1,-1.121195078E0,-6.730483770E-1
2.560867594E1,3.693276405E0,8.406233788E-1,-1.245521188E0
2.562467594E1,7.069081306E0,1.937675238E0,5.801342130E-1
2.564067594E1,7.763658524E0,6.391053200E0,2.372625351E0
2.565667594E1,1.175116348E1,2.154365730E1,1.573498011E0
2.567267594E1,1.351014423E1,3.102719688E1,4.210691929E0
2.568867594E1,8.163269997E0,2.236934090E1,1.043414116E1
2.570467594E1,3.794292450E0,2.454378510E1,6.113642216E0
2.572067594E1,-9.830592573E-2,2.713359451E1,3.589741468E0
2.573667594E1,-1.500206828E0,2.960867119E1,3.124251127E0
2.575267594E1,1.450148821E0,3.045353699E1,4.614201069E0
2.576867594E1,3.592154741E0,2.749913025E1,6.900098801E0
2.578467594E1,3.852605820E0,2.452493668E1,6.486007214E0
2.580067594E1,4.206286430E0,2.223514175E1,5.095579624E0
2.581667594E1,6.556818485E0,1.941241837E1,3.787924051E0
2.583267594E1,9.472516060E0,1.531476974E1,2.744942665E0
2.584867594E1,1.079603004E1,1.130835056E1,2.035148144E0
2.586467594E1,9.825344086E0,7.558504581E0,1.439834595E0
2.588067594E1,7.257304192E0,3.809921980E0,1.528573275E0
2.589667594E1,4.908860207E0,1.304533482E0,1.373821616E0
2.591267594E1,3.277623892E0,1.650849879E-1,6.342815161E-1
2.592867594E1,2.391788244E0,-3.094266355E-2,-5.154811740E-1
2.594467594E1,2.248212814E0,1.030655980E0,-1.061522007E0
2.596067594E1,2.875551224E0,2.644874573E0,-1.259388447E0
2.597667594E1,3.583219767E0,4.384051323E0,-1.554440141E0
2.599267594E1,4.584226131E0,5.984900951E0,-1.447103381E0
2.600870563E1,4.959493160E0,7.910653114E0,-1.039370894E0
2.602467594E1,5.173103333E0,9.948826790E0,-9.293333292E-1
2.604067594E1,5.686889648E0,1.131644344E1,-3.675769866E-1
2.605667594E1,4.922928810E0,1.113138103E1,8.515887856E-1
2.607267594E1,2.795058012E0,1.044264507E1,1.291901588E0
2.608867594E1,-1.226118580E-1,8.788625717E0,4.511250556E-1
2.610467594E1,-1.542814016E0,6.001420975E0,-4.996220022E-2
2.612067594E1,-9.912282228E-1,1.765570521E0,1.632223010E0
2.613667594E1,2.130523443E0,-2.537518501E0,3.903745890E0
2.615267594E1,8.305648804E0,-5.626737595E0,1.778451324E0
2.616867594E1,1.106304073E1,-1.108590031E1,6.418270588E0
2.618467594E1,1.277743244E1,-1.428177738E1,3.575950861E0
2.620067594E1,7.041931152E0,-1.222241879E1,4.190015793E0
2.621667594E1,2.343023300E0,-1.212944698E1,4.905891418E0
2.623267594E1,3.923770905E0,-1.322729397E1,3.043011189E0
2.624867594E1,7.510016918E0,-1.015986252E1,2.201468468E0
2.626467594E1,9.224763870E0,-7.436878681E0,1.660244703E0
2.628067594E1,1.061805439E1,-4.691486359E0,2.049551487E0
2.629667594E1,1.159514713E1,-2.277115822E0,1.553951740E0
2.631267594E1,1.161362076E1,-1.418516636E-1,7.428154349E-1
2.632867594E1,1.013603497E1,2.622311831E0,4.159207270E-2
2.634467594E1,8.105215073E0,6.003575802E0,-5.542098358E-2
2.636067594E1,5.669709206E0,9.163041115E0,-3.174519837E-1
2.637667594E1,3.461575270E0,1.092959785E1,-8.348006606E-1
2.639267594E1,2.884390593E0,1.028240681E1,-1.296441078E0
2.640867594E1,2.990616560E0,7.401655197E0,-1.649241090E0
2.642467594E1,3.330803633E0,3.972162485E0,-9.588490725E-1
2.644067594E1,2.430708408E0,1.468603253E0,-2.955690026E-1
2.645667594E1,1.468708634E0,1.883758046E-2,5.117845535E-2
2.647267594E1,1.044034839E0,-4.209293723E-1,2.617245615E-1
2.648867594E1,5.226063132E-1,-2.010650635E-1,2.114654630E-1
2.650467594E1,7.865431160E-2,3.883011937E-1,5.110279918E-1
2.652067594E1,-4.226244614E-2,2.171732426E0,3.727388978E-1
2.653667594E1,3.250942826E-1,4.356221199E0,2.237908244E-1
2.655267594E1,6.944046617E-1,4.831278801E0,4.868752658E-1
2.656867594E1,1.642326713E-1,4.485364437E0,1.137063861E0
2.658467594E1,-2.203182697E0,6.255541325E0,3.180869341E0
2.660067594E1,1.946150780E0,1.726697350E1,1.035210609E1
2.661667594E1,1.787195015E1,3.386393356E1,1.352860928E1
2.663267594E1,2.011430168E1,2.280118942E1,1.487126732E1
2.664867594E1,1.197185993E1,2.431553078E1,2.533122778E0
2.666467594E1,-1.473583221E0,2.602288437E1,2.649682045E0
2.668067594E1,-5.552077293E0,2.902112579E1,5.903938293E0
2.669667594E1,-4.612180710E0,2.962824631E1,5.986155510E0
2.671267594E1,-5.721778393E0,2.780416298E1,7.106747150E0
2.672867594E1,-4.861742496E0,2.371694374E1,7.329513073E0
2.674467594E1,-8.143254519E-1,1.967909431E1,6.352458954E0
2.676067594E1,4.806407928E0,1.651887131E1,4.807001591E0
2.677667594E1,8.530483246E0,1.324845886E1,3.653867960E0
2.679267594E1,9.029971123E0,9.237969398E0,3.151382208E0
2.680867594E1,7.377847672E0,5.583029270E0,2.576754808E0
2.682467594E1,5.745614529E0,2.244640589E0,1.895173430E0
2.684067594E1,4.631535053E0,1.110813841E-1,1.387181282E0
2.685667594E1,4.155864716E0,-5.077431202E-1,9.491956234E-1
2.687267594E1,3.393666029E0,-2.355319858E-1,6.298761368E-1
2.688867594E1,2.386607170E0,8.401637077E-1,4.303242564E-1
2.690467594E1,1.510971069E0,2.405377865E0,-3.543418366E-3
2.692067594E1,1.202502251E0,4.252226353E0,-4.459057152E-1
2.693667594E1,1.216522574E0,6.167684078E0,-6.117089987E-1
2.695267594E1,1.688390970E0,7.625235558E0,-4.167826176E-1
2.696867594E1,3.180840492E0,8.423471451E0,-5.782667398E-1
2.698467594E1,5.348426342E0,8.842754364E0,-4.691390395E-1
2.700067594E1,5.457228661E0,9.185853004E0,-4.947187006E-1
2.701667594E1,4.942408085E0,9.081264496E0,-1.396710157E0
2.703267594E1,4.202935219E0,7.794361591E0,-2.017948151E0
2.704867594E1,3.799129009E0,6.115049839E0,-1.497333765E0
2.706467594E1,3.581400156E0,2.297993183E0,1.701846480E0
2.708067594E1,5.551396847E0,-4.366085529E0,3.883184671E0
2.709667594E1,6.674967289E0,-1.233549213E1,5.788959503E0
2.711267594E1,9.477409363E0,-1.603218842E1,2.614822626E0
2.712867594E1,8.416912079E0,-1.324702263E1,4.210893154E0
2.714467594E1,5.136817455E0,-1.110617447E1,5.759396076E0
2.716067594E1,4.449231625E0,-1.158323479E1,4.112903118E0
2.717667594E1,7.450487137E0,-1.156286430E1,3.103852510E0
2.719267594E1,9.976226807E0,-8.971878052E0,2.332929134E0
2.720867594E1,1.110342693E1,-5.910871983E0,2.198193073E0
2.722467594E1,1.213193703E1,-3.240925550E0,1.783651471E0
2.724067594E1,1.334249306E1,-8.575456142E-1,8.571816683E-1
2.725667594E1,1.359870243E1,1.471370935E0,1.898506135E-1
2.727267594E1,1.207265663E1,4.297677994E0,3.403405547E-1
2.728867594E1,9.294789314E0,7.527178764E0,5.644091368E-1
2.730467594E1,5.780972004E0,1.039700317E1,4.742722213E-1
2.732067594E1,3.950088024E0,9.706773758E0,-5.441828966E-1
2.733667594E1,3.213076115E0,6.324130535E0,-1.494575739E0
2.735267594E1,2.456067801E0,3.156094313E0,-2.146861553E0
2.736867594E1,1.713070393E0,7.408905029E-1,-1.528994679E0
2.738467594E1,9.493201375E-1,-7.324724793E-1,-9.204747677E-1
2.740067594E1,9.352613688E-1,-1.399449229E0,-7.561176419E-1
2.741667594E1,7.112023830E-1,-1.341854215E0,-6.492404938E-1
2.743267594E1,1.100662351E-1,-6.736612916E-1,-6.967605352E-1
2.744867594E1,-9.284043312E-1,7.068353891E-1,-5.042763352E-1
2.746467594E1,-1.693840265E0,2.591895819E0,-6.925467849E-1
2.748067594E1,-1.803427577E0,4.237679482E0,-9.680331945E-1
2.749667594E1,-1.106781960E0,3.921855688E0,-4.909645617E-1
2.751267594E1,-1.497506142E0,1.700697303E0,1.587183356E0
2.752867594E1,-3.615273237E0,1.351182103E0,6.103442192E0
2.754467594E1,-1.363842607E0,1.535445595E1,1.297410297E1
2.756067594E1,1.204699993E1,3.650094604E1,1.233078003E1
2.757667594E1,1.418787670E1,2.495088387E1,9.980593681E0
2.759267594E1,4.265959740E0,2.756660843E1,4.153834343E0
2.760867594E1,-2.939868927E0,2.964201736E1,8.370857239E0
2.762467594E1,-1.837386966E0,3.187555885E1,9.061651230E0
2.764071813E1,-4.750373840E0,3.096268845E1,9.251932144E0
2.765667594E1,-7.219686508E0,2.844408417E1,8.957474709E0
2.767267594E1,-5.292315960E0,2.384488869E1,8.727506638E0
2.768867594E1,-2.851877511E-1,1.982197762E1,7.692014694E0
2.770467594E1,4.206631184E0,1.662120819E1,5.736871243E0
2.772067594E1,7.166630745E0,1.294657898E1,4.380507946E0
2.773667594E1,7.717450619E0,8.995284081E0,3.883701563E0
2.775267594E1,6.900376320E0,4.963199139E0,4.183311939E0
2.776867594E1,6.154285908E0,1.856042624E0,4.094669342E0
2.778467594E1,5.645115852E0,-9.408254921E-2,2.802796125E0
2.780067594E1,5.388064861E0,-7.187489271E-1,1.186882496E0
2.781667594E1,5.650871754E0,-3.801130354E-1,-1.637250781E-1
2.783267594E1,6.232681751E0,9.309327006E-1,-6.886681318E-1
2.784867594E1,5.975371838E0,2.574810743E0,-9.219304919E-1
2.786467594E1,5.296194553E0,4.558340073E0,-1.004396319E0
2.788067594E1,4.284242153E0,6.673540592E0,-5.590652227E-1
2.789667594E1,4.031308651E0,9.485233307E0,3.831872046E-1
2.791267594E1,3.786506653E0,1.290851116E1,6.982545853E-1
2.792867594E1,3.642509699E0,1.447924137E1,2.498588897E-2
2.794467594E1,3.184613705E0,1.312743664E1,-1.224911809E0
2.796067594E1,1.233004332E0,1.073976707E1,-7.603888512E-1
2.797667594E1,-7.088752389E-1,8.378958702E0,5.976214409E-1
2.799267594E1,-1.212806821E0,5.376295090E0,4.021933556E0
2.800868063E1,6.214677095E-1,4.489415586E-1,7.651974201E0
2.802467594E1,5.785224438E0,-8.196673393E0,1.014826488E1
2.804067594E1,8.343112946E0,-1.553038216E1,4.942877293E0
2.805667594E1,6.532617569E0,-1.510005760E1,5.734486103E0
2.807267594E1,2.289862394E0,-1.094379139E1,8.309680939E0
2.808867594E1,-1.133089423E0,-1.316097450E1,5.343024731E0
2.810467594E1,9.652942419E-1,-1.741842079E1,4.403367519E0
2.812067594E1,6.043271542E0,-1.443400955E1,3.593830824E0
2.813667594E1,8.452700615E0,-1.017903519E1,3.230256796E0
2.815267594E1,9.317457199E0,-6.306835175E0,2.928779125E0
2.816867594E1,1.027404594E1,-3.538716316E0,2.756434917E0
2.818467594E1,1.090437222E1,-1.604574800E0,1.703330755E0
2.820067594E1,1.024356365E1,1.180427670E0,-3.647231162E-1
2.821667594E1,8.558245659E0,4.516029358E0,-6.658945084E-1
2.823267594E1,6.402354240E0,7.983915329E0,-2.293070704E-1
2.824867594E1,4.187267303E0,1.046607018E1,-2.513624430E-1
2.826467594E1,2.885702610E0,1.082208920E1,-3.432231843E-1
2.828067594E1,2.977285624E0,8.446408272E0,-1.092857242E0
2.829667594E1,3.116704941E0,6.320185184E0,-1.320565104E0
2.831267594E1,2.364935160E0,4.734869003E0,-7.651485801E-1
2.832867594E1,1.545007110E0,3.360798359E0,-3.218094409E-1
2.834467594E1,1.367108226E0,1.903744698E0,-2.574916184E-1
2.836067594E1,1.192188025E0,8.291599154E-1,-1.208114177E-1
2.837667594E1,1.216532230E0,3.733422160E-1,3.737157285E-1
2.839267594E1,1.154081821E0,8.458140492E-1,1.066291213E0
2.840867594E1,9.292375445E-1,1.876469970E0,2.232707977E0
2.842467594E1,6.766397357E-1,2.675645113E0,2.802058935E0
2.844067594E1,6.897120476E-1,3.273132324E0,2.725865841E0
2.845667594E1,3.715801053E-3,4.626421452E0,3.238914251E0
2.847267594E1,4.274339199E0,1.659816742E1,7.242259026E0
2.848867594E1,1.685249710E1,2.900827217E1,1.097686958E1
2.850467594E1,1.841958046E1,2.023090744E1,9.713611603E0
2.852067594E1,6.118966579E0,2.089271355E1,5.635951161E-1
2.853667594E1,-4.967604637E0,2.446911430E1,5.370759487E0
2.855267594E1,-4.126243591E0,2.902672577E1,6.105118752E0
2.856867594E1,-4.136481285E0,3.146526909E1,4.097273827E0
2.858467594E1,-6.428536892E0,2.883382034E1,6.000587940E0
2.860067594E1,-4.922785282E0,2.556298828E1,7.423442841E0
2.861667594E1,3.174711168E-1,2.251780319E1,7.527255535E0
2.863267594E1,5.690806866E0,2.009704399E1,6.919788361E0
2.864867594E1,8.279006004E0,1.765771675E1,6.179568768E0
2.866467594E1,8.735474586E0,1.428383636E1,6.103624344E0
2.868067594E1,7.086472988E0,9.953395844E0,5.315252304E0
2.869667594E1,4.867163181E0,5.727705956E0,4.571144104E0
2.871267594E1,3.361861229E0,2.174432993E0,3.319359541E0
2.872867594E1,2.718826771E0,2.131509930E-1,2.003554106E0
2.874467594E1,2.901829720E0,-7.710574269E-1,1.058218002E0
2.876067594E1,3.023924589E0,-8.212782145E-1,4.042082727E-1
2.877667594E1,3.077640772E0,3.373621702E-1,-1.199686602E-1
2.879267594E1,3.384405375E0,2.133176327E0,-8.529295921E-1
2.880867594E1,3.638391495E0,4.103259087E0,-1.438809991E0
2.882467594E1,3.533659697E0,5.795260906E0,-1.597095370E0
2.884067594E1,3.513672829E0,7.037707806E0,-1.182687759E0
2.885667594E1,3.397027254E0,8.029319763E0,-1.113667727E0
2.887267594E1,3.605993509E0,8.635732651E0,-7.411395311E-1
2.888867594E1,3.514151812E0,9.099556923E0,-4.112663865E-1
2.890467594E1,2.419034481E0,9.536708832E0,-1.129718423E0
2.892067594E1,1.515175343E0,8.437425613E0,-1.842520118E0
2.893667594E1,1.451355457E0,5.735492229E0,-8.914762139E-1
2.895267594E1,1.712323427E0,2.241508961E0,1.591119409E0
2.896867594E1,3.495247126E0,-2.542000532E0,4.243147850E0
2.898467594E1,8.619346619E0,-6.705373764E0,2.371906996E0
2.900067594E1,1.150324821E1,-1.409466457E1,5.541877747E0
2.901667594E1,1.447304535E1,-1.799687958E1,4.771854401E0
2.903267594E1,1.187387085E1,-1.590435600E1,6.317139626E0
2.904867594E1,8.788568497E0,-1.257242298E1,6.574439526E0
2.906467594E1,9.212332726E0,-1.238988876E1,4.807710648E0
2.908067594E1,9.947160721E0,-1.054629612E1,4.405397892E0
2.909667594E1,1.032766724E1,-8.436468124E0,3.537337065E0
2.911267594E1,1.152697086E1,-6.574535370E0,2.260643482E0
2.912867594E1,1.167752743E1,-4.383533955E0,8.248503506E-2
2.914467594E1,1.049722481E1,-1.811529636E0,-6.723301411E-1
2.916067594E1,7.560812473E0,1.227172017E0,-9.344568849E-1
2.917667594E1,4.307935238E0,4.306450844E0,-1.245837331E0
2.919267594E1,1.972946644E0,7.177462578E0,-1.292485833E0
2.920867594E1,8.902983069E-1,8.381755829E0,-1.164855719E0
2.922467594E1,9.352996945E-1,7.442586899E0,-1.530737638E0
2.924067594E1,1.640985847E0,5.393734455E0,-1.731659055E0
2.925667594E1,1.525508642E0,3.554498672E0,-1.439834595E0
2.927267594E1,1.254954338E0,2.477567911E0,-7.830476165E-1
2.928867594E1,8.806352615E-1,1.777225494E0,-4.679036140E-1
2.930467594E1,2.596272230E-1,1.271608353E0,-2.991794348E-1
2.932067594E1,-3.807930052E-1,1.117440939E0,-1.416697055E-1
2.933667594E1,-6.698306203E-1,1.413354754E0,3.303998336E-2
2.935267594E1,-1.183109164E0,2.159704208E0,8.583692461E-2
2.936867594E1,-1.190061927E0,3.042206764E0,3.893929720E-1
2.938467594E1,-6.526210904E-1,3.217203856E0,1.695248008E0
2.940067594E1,2.825924158E-1,2.497487545E0,2.732416153E0
2.941667594E1,1.166024208E0,2.629666805E0,3.066158533E0
2.943267594E1,2.768367529E-1,5.777524948E0,4.153231621E0
2.944867594E1,2.776536703E0,1.858572769E1,7.816848278E0
2.946467594E1,1.588592052E1,3.688379669E1,1.049583626E1
2.948067594E1,2.026098061E1,2.519035339E1,1.231637669E1
2.949667594E1,1.044937801E1,2.529942322E1,4.268555164E0
2.951267594E1,-2.711577117E-1,2.968587875E1,4.918284416E0
2.952867594E1,-4.016991615E0,3.253080368E1,4.851840496E0
2.954467594E1,-6.273249149E0,3.143039131E1,6.636689186E0
2.956067594E1,-6.459403038E0,2.737215233E1,7.730695248E0
2.957667594E1,-4.533659935E0,2.267541885E1,7.506071091E0
2.959267594E1,-1.536177278E0,1.873242569E1,6.760133743E0
2.960867594E1,3.073341131E0,1.657730865E1,5.751245975E0
2.962467594E1,7.388630867E0,1.374941254E1,5.057818413E0
2.964067594E1,8.843136787E0,1.037492847E1,4.662755966E0
2.965667594E1,7.896077156E0,6.946115017E0,3.598964214E0
2.967267594E1,6.652413845E0,3.575903177E0,2.808561325E0
2.968867594E1,5.187861919E0,8.184530735E-1,2.483946085E0
2.970467594E1,4.058985710E0,-8.465514183E-1,1.603645921E0
2.972067594E1,3.626669645E0,-1.173599362E0,7.520187497E-1
2.973667594E1,3.219186068E0,5.813121796E-2,6.827305257E-2
2.975267594E1,3.310998917E0,2.351632833E0,-5.908793807E-1
2.976867594E1,4.052234173E0,4.792645931E0,-1.216484308E0
2.978467594E1,5.082200527E0,6.550545216E0,-1.611268997E0
2.980067594E1,5.302467346E0,7.573530197E0,-1.863752007E0
2.981667594E1,5.307447433E0,8.125920296E0,-1.452006698E0
2.983267594E1,5.429187298E0,9.116794586E0,-1.119547844E0
2.984867594E1,5.489367962E0,1.106683254E1,-7.295994163E-1
2.986467594E1,4.884037495E0,1.280933285E1,-9.449531436E-1
2.988067594E1,2.520174980E0,1.182878304E1,-3.003573895E0
2.989667594E1,1.161254883E0,9.495222092E0,-2.353059769E0
2.991267594E1,1.734771490E0,5.806360245E0,1.877264738E0
2.992867594E1,2.989007473E0,3.927640021E-1,7.515791893E0
2.994467594E1,7.139269829E0,-7.306155205E0,1.206339550E1
2.996067594E1,9.047650337E0,-1.742810440E1,4.500687599E0
2.997667594E1,4.413701057E0,-2.225389481E1,2.351268768E0
2.999267594E1,-2.515060902E-1,-1.515862942E1,8.170596123E0
3.000867594E1,5.343666673E-1,-1.467048073E1,4.290227413E0
3.002467594E1,5.457276344E0,-1.521043110E1,2.307847738E0
3.004067594E1,7.261987209E0,-1.099656868E1,2.134641647E0
3.005667594E1,7.367954731E0,-7.683405399E0,2.956906319E0
3.007267594E1,8.249998093E0,-5.016436577E0,2.465328693E0
3.008867594E1,9.639256477E0,-1.804098010E0,1.072477937E0
3.010467594E1,9.955349922E0,1.844138622E0,4.523030221E-1
3.012067594E1,8.734737396E0,5.755028725E0,1.946486086E-1
3.013667594E1,6.930447578E0,9.632562637E0,6.197342873E-1
3.015267594E1,5.693277359E0,1.265514660E1,1.024814129E0
3.016867594E1,5.861963272E0,1.220623398E1,-2.574916184E-1
3.018467594E1,6.155798912E0,8.049391747E0,-2.599480391E0
3.020067594E1,5.832284927E0,3.988251686E0,-3.367875814E0
3.021667594E1,4.150300980E0,1.507638454E0,-2.624255896E0
3.023267594E1,1.922639728E0,5.666117668E-1,-2.255826473E0
3.024867594E1,3.931662440E-1,3.238971829E-1,-1.967669964E0
3.026467594E1,-1.967746466E-1,1.971577108E-1,-1.092502952E0
3.028067594E1,-3.929747045E-1,2.234077454E-1,-8.415714502E-1
3.029667594E1,-2.455397546E-1,6.109715700E-1,-7.697741985E-1
3.031267594E1,1.676132679E-1,1.891773701E0,-8.746497631E-1
3.032867594E1,1.295138717E0,2.758292675E0,9.440816045E-1
3.034467594E1,2.161638498E0,3.564602375E0,2.463250399E0
3.036067594E1,4.720503986E-1,4.888796806E0,2.515118361E0
3.037667594E1,1.866519824E-2,1.012956047E1,3.797989368E0
3.039267594E1,5.812681198E0,2.310417938E1,7.710995674E0
3.040867594E1,1.551515484E1,3.002726364E1,8.262466431E0
3.042467594E1,1.008441639E1,2.633940887E1,8.348457336E0
3.044067594E1,2.461909801E-1,2.866478157E1,6.129185200E0
3.045667594E1,-4.242199898E0,3.096472931E1,5.372358799E0
3.047267594E1,-7.170950413E0,3.149309921E1,5.268900394E0
3.048867594E1,-8.924434662E0,3.017375946E1,5.810114861E0
3.050467594E1,-6.908918858E0,2.584400940E1,6.593066216E0
3.052067594E1,-2.691858292E0,2.123575592E1,7.344730854E0
3.053667594E1,1.377623677E0,1.840788651E1,7.127270699E0
3.055267594E1,4.754185677E0,1.612175941E1,6.022576332E0
3.056867594E1,7.472437382E0,1.330923367E1,4.334347725E0
3.058467594E1,7.882688999E0,9.920833588E0,2.756616592E0
3.060067594E1,7.005491734E0,6.253272057E0,1.488216639E0
3.061667594E1,6.581516743E0,2.717620134E0,7.107043862E-1
3.063267594E1,5.728816986E0,4.264456034E-1,-1.026059091E-1
3.064867594E1,4.802701473E0,-8.250802159E-1,-8.142200708E-1
3.066467594E1,4.427414894E0,-1.023875594E0,-6.456683278E-1
3.068067594E1,4.243454456E0,4.487404525E-1,-3.741562366E-1
3.069667594E1,4.592117310E0,2.934803009E0,-6.137392521E-1
3.071267594E1,4.776097298E0,5.109676838E0,-9.366691709E-1
3.072867594E1,4.498695374E0,6.836230755E0,-1.078223944E0
3.074467594E1,4.408855438E0,8.673005104E0,-1.072784305E0
3.076067594E1,4.794091702E0,1.034190750E1,-6.099468470E-1
3.077667594E1,4.950558186E0,1.177378464E1,-4.454747438E-1
3.079267594E1,4.236932755E0,1.235944366E1,-4.594568908E-1
3.080867594E1,2.861358404E0,1.208730984E1,-7.982938886E-1
3.082467594E1,9.587532878E-1,1.033116245E1,-1.888383508E0
3.084067594E1,-1.367663741E-1,8.697080612E0,-3.495754719E0
3.085667594E1,2.620118856E-1,5.034862518E0,7.293409109E-1
3.087267594E1,2.920284510E0,-1.151208758E0,6.725169182E0
3.088867594E1,7.880725384E0,-7.426727772E0,6.610716343E0
3.090467594E1,9.016726494E0,-1.538586807E1,7.421058178E0
3.092067594E1,1.050110245E1,-1.901237488E1,4.169617176E0
3.093667594E1,8.725600243E0,-1.422467995E1,6.901783943E0
3.095267594E1,7.099698544E0,-1.045259666E1,5.821501255E0
3.096867594E1,7.559663296E0,-1.241571712E1,4.644990921E0
3.098467594E1,9.116382599E0,-1.154214001E1,3.416918516E0
3.100067594E1,9.898626328E0,-8.428739548E0,2.806464195E0
3.101667594E1,1.097021294E1,-5.896755695E0,2.616641998E0
3.103267594E1,1.175399780E1,-3.659278870E0,1.096113443E0
3.104867594E1,1.123722363E1,-1.140214562E0,-6.893002391E-1
3.106467594E1,9.385184288E0,1.847050071E0,-1.205011368E0
3.108067594E1,6.863707066E0,4.905001163E0,-7.192947865E-1
3.109667594E1,4.190886974E0,8.203262329E0,-3.802662790E-1
3.111267594E1,2.406393051E0,1.035042095E1,-3.816740811E-1
3.112867594E1,2.076040983E0,9.455133438E0,-1.238147140E0
3.114467594E1,2.402657986E0,6.595757484E0,-1.991889596E0
3.116067594E1,1.995940566E0,4.294967651E0,-1.263190389E0
3.117667594E1,1.214482784E0,2.877112150E0,-5.899025798E-1
3.119267594E1,1.083155990E0,1.855190277E0,-4.328142107E-1
3.120867594E1,1.113313317E0,1.118341208E0,-6.124559045E-1
3.122467594E1,1.048564553E0,8.782123327E-1,-3.861751854E-1
3.124067594E1,1.008658051E0,9.411989450E-1,-8.884403855E-2
3.125667594E1,7.612987161E-1,1.513346195E0,8.415139467E-2
3.127267594E1,5.317426324E-1,2.695076227E0,8.269285560E-1
3.128867594E1,6.590471268E-1,4.249689102E0,6.960422993E-1
3.130467594E1,1.712534189E0,5.465119839E0,-1.100758240E-1
3.132067594E1,3.433122396E0,7.147410393E0,3.230257034E-1
3.133667594E1,5.617199421E0,1.116926670E1,3.350579739E0
3.135267594E1,9.781722069E0,2.042594910E1,7.084231853E0
3.136867594E1,1.485374260E1,2.413974953E1,1.212915993E1
3.138467594E1,1.556852627E1,2.511015892E1,1.048146057E1
3.140067594E1,6.903689861E0,2.884528542E1,5.557564259E0
3.141667594E1,-3.476246834E0,3.217054367E1,6.023476124E0
3.143267594E1,-7.472150326E0,3.109958839E1,5.766272068E0
3.144867594E1,-9.518781662E0,2.736333275E1,5.942839146E0
3.146467594E1,-7.711120129E0,2.294022369E1,4.901725769E0
3.148067594E1,-3.287947416E0,1.897330093E1,4.687243462E0
3.149667594E1,1.443607926E0,1.644641495E1,5.091241360E0
3.151267594E1,6.896593571E0,1.441484642E1,5.195724010E0
3.152867594E1,1.077893543E1,1.212298203E1,4.694656372E0
3.154467594E1,1.140675259E1,8.854044914E0,4.854349136E0
3.156067594E1,9.003213882E0,5.680731773E0,4.493514061E0
3.157667594E1,6.703458309E0,3.053009272E0,3.693927526E0
3.159267594E1,4.826145649E0,1.616890669E0,2.476504803E0
3.160867594E1,3.521554708E0,5.200588703E-1,9.931436181E-1
3.162467594E1,3.310117960E0,2.342965901E-1,-4.876509681E-2
3.164067594E1,3.650927782E0,1.000785947E0,-8.196023107E-1
3.165667594E1,4.165834427E0,2.765140057E0,-1.268630028E0
3.167267594E1,4.251690388E0,4.797309875E0,-1.692892075E0
3.168867594E1,3.886277914E0,6.783099174E0,-2.007384777E0
3.170467594E1,3.558233976E0,8.003366470E0,-1.699528813E0
3.172067594E1,3.330918789E0,8.596639633E0,-1.154043555E0
3.173667594E1,3.418479443E0,8.793414116E0,-7.050349116E-1
3.175267594E1,4.271734715E0,9.239492416E0,-1.106216982E-1
3.176867594E1,4.693459034E0,1.028079796E1,-1.174499616E-1
3.178467594E1,3.899407387E0,9.900281906E0,-8.558791876E-1
3.180067594E1,3.221206903E0,7.231207371E0,-1.545227289E0
3.181667594E1,3.657009125E0,4.043931007E0,1.810073972E0
3.183267594E1,6.040714264E0,-1.018186927E0,5.008325100E0
3.184867594E1,1.001984882E1,-5.867824078E0,4.428372860E0
3.186467594E1,1.114457798E1,-1.532925987E1,7.660325050E0
3.188067594E1,6.305244923E0,-2.088558769E1,4.912202835E0
3.189667594E1,1.221138716E0,-1.543217182E1,8.426173210E0
3.191267594E1,4.765629768E0,-1.123588276E1,6.869635105E0
3.192867594E1,8.036597252E0,-1.008328629E1,4.375106812E0
3.194467594E1,7.684678555E0,-7.478404045E0,4.196930408E0
3.196067751E1,7.736115932E0,-5.390736580E0,3.869144678E0
3.197667594E1,9.069963455E0,-3.675463676E0,2.652258396E0
3.199267594E1,9.937938690E0,-1.058198810E0,7.965700626E-1
3.200867594E1,9.591353416E0,2.190570116E0,-1.342572421E-1
3.202467594E1,7.921235561E0,6.303569317E0,-7.881233096E-1
3.204067594E1,6.257207870E0,1.035820675E1,-5.389539599E-1
3.205667594E1,4.606568336E0,1.351636028E1,-2.860783637E-1
3.207267594E1,3.861196041E0,1.314201260E1,-1.286165118E0
3.208867594E1,4.765112877E0,9.287682533E0,-2.081777573E0
3.210467594E1,4.977401733E0,5.983972073E0,-1.934151053E0
3.212067594E1,4.491311550E0,3.795594931E0,-1.330764294E0
3.213667594E1,4.225756168E0,2.191192627E0,-3.483180404E-1
3.215267594E1,3.601904154E0,5.546503067E-1,2.068590224E-1
3.216867594E1,2.701157570E0,-3.700861335E-1,5.190150142E-1
3.218467594E1,1.826584339E0,-6.309200078E-2,7.615284920E-1
3.220067594E1,9.850894809E-1,1.489499927E0,5.992878675E-1
3.221667594E1,3.639665544E-1,3.295618534E0,4.158345461E-1
3.223267594E1,2.111302763E-1,4.363087654E0,4.872870743E-1
3.224867594E1,2.916616499E-1,4.267051697E0,1.902719975E0
3.226467594E1,-1.669524759E-1,5.668828011E0,3.940683603E0
3.228067594E1,2.257818460E0,1.297758770E1,6.245667934E0
3.229667594E1,9.037508011E0,2.507610130E1,6.316593647E0
3.231267594E1,1.756670761E1,2.186800575E1,1.235050869E1
3.232867594E1,1.687382698E1,2.226367188E1,7.961084366E0
3.234467594E1,3.945088863E0,2.593073654E1,2.570175648E0
3.236067594E1,-5.444069862E0,3.035084534E1,3.290226698E0
3.237667594E1,-7.755336285E0,2.834799957E1,6.232872963E0
3.239267594E1,-1.021623993E1,2.651541901E1,7.033944130E0
3.240867594E1,-8.492396355E0,2.244559288E1,5.874968529E0
3.242467594E1,-3.505532742E0,1.851602745E1,5.535796165E0
3.244067594E1,1.844004512E0,1.651359367E1,5.003096104E0
3.245667594E1,5.794963837E0,1.419915867E1,4.891517162E0
3.247267594E1,7.180393219E0,1.153852940E1,4.902185440E0
3.248867594E1,6.425070286E0,8.481574059E0,4.276072979E0
3.250467594E1,5.100042343E0,5.780244827E0,3.371840239E0
3.252067594E1,4.257627964E0,3.038797379E0,2.307809353E0
3.253667594E1,3.892981529E0,4.884458780E-1,1.372748971E0
3.255267594E1,4.268449783E0,-1.032600045E0,3.795097172E-1
3.256867594E1,4.769058228E0,-1.256716490E0,-5.587491989E-1
3.258467594E1,4.827572823E0,2.085541189E-1,-1.354792595E0
3.260067594E1,3.835616350E0,2.535028458E0,-1.881057262E0
3.261667594E1,3.150989771E0,4.731143475E0,-2.074585438E0
3.263267594E1,3.171359539E0,6.390018940E0,-2.138989210E0
3.264867594E1,3.717783451E0,6.884297371E0,-2.062192917E0
3.266467594E1,4.015066624E0,7.035591125E0,-1.359178662E0
3.268067594E1,4.515684605E0,7.432569504E0,-3.729208708E-1
3.269667594E1,5.168650627E0,8.901459694E0,4.245302677E-1
3.271267594E1,5.106056690E0,1.037904549E1,2.133520991E-1
3.272867594E1,4.813159466E0,9.625169754E0,-5.215433240E-1
3.274467594E1,4.441522121E0,6.672860146E0,-9.613964558E-1
3.276073532E1,5.099458218E0,3.257991552E0,1.793975353E0
3.277667594E1,7.989259720E0,-5.143703148E-2,3.284873486E0
3.279267594E1,1.277859211E1,-4.936489582E0,5.897493362E0
3.280867594E1,1.507543564E1,-1.420507622E1,8.951077461E0
3.282467594E1,1.291504192E1,-1.883814430E1,7.385786533E0
3.284067594E1,1.038828850E1,-1.298912811E1,8.469583511E0
3.285667594E1,1.040427113E1,-8.778628349E0,5.602949142E0
3.287267594E1,1.036141491E1,-6.484398365E0,4.139900208E0
3.288867594E1,1.074429607E1,-4.675713062E0,3.183206081E0
3.290469626E1,1.212582684E1,-3.026769161E0,1.167920232E0
3.292067594E1,1.300743008E1,-1.531829357E0,-4.394796789E-1
3.293667594E1,1.177049923E1,1.337975562E-1,-1.402283907E0
3.295267594E1,8.097764969E0,1.873213887E0,-2.054895401E0
3.296867594E1,3.585585117E0,3.956858873E0,-2.262721777E0
3.298467594E1,4.470836520E-1,5.702806473E0,-1.953467488E0
3.300067594E1,-3.565924168E-1,6.717670441E0,-1.675902843E0
3.301667594E1,6.903536916E-1,6.558589935E0,-1.206744790E0
3.303267594E1,1.026901841E0,5.828166962E0,-8.289588094E-1
3.304867594E1,5.140734315E-1,5.432950974E0,-5.438094139E-1
3.306467594E1,3.421984613E-1,4.834745407E0,2.246718854E-2
3.308067594E1,1.880501658E-1,3.628537178E0,5.144852400E-1
3.309667594E1,-1.819593308E-4,2.449708939E0,8.406521082E-1
3.311267594E1,2.342391163E-1,1.951848984E0,1.017736793E0
3.312867594E1,4.414429069E-1,2.166513205E0,1.271416903E0
3.314467594E1,4.901218116E-1,2.824343920E0,1.959903121E0
3.316067594E1,8.743433356E-1,3.407609940E0,3.050117254E0
3.317667594E1,1.371829748E0,3.650449038E0,2.742998600E0
3.319267594E1,2.048239470E0,3.957337618E0,2.234278679E0
3.320867594E1,2.310873985E0,5.398513317E0,1.817275763E0
3.322467594E1,4.642366886E0,1.159848022E1,3.573135138E0
3.324067594E1,1.103867817E1,2.286715508E1,5.109083176E0
3.325667594E1,1.507573223E1,2.477864647E1,8.185996056E0
3.327267594E1,1.181687927E1,2.548209190E1,8.225538254E0
3.328867594E1,3.213325262E0,3.047218323E1,5.143511295E0
3.330467594E1,-3.843565226E0,3.283350754E1,4.942015171E0
3.332067594E1,-8.061382294E0,3.149458313E1,5.977306843E0
3.333667594E1,-1.063690090E1,2.712786674E1,6.903901100E0
3.335267594E1,-8.221592903E0,2.172534943E1,5.924767971E0
3.336867594E1,-3.385066032E0,1.756242752E1,5.684370995E0
3.338467594E1,1.749069691E0,1.422597313E1,5.404785633E0
3.340067594E1,5.500056267E0,1.156867790E1,4.321447849E0
